Period Time Slot Subject CTR Revenue Bid VFC Cost Payoff
Period   
Period   
0 0adm  
0 0adm  
0 0adm  
0 0adm  
0 061  
0 061  
0 061  ""6"" 
0 161  
0 161  
0 161  1 
0 051  
0 051  
0 051  ""5"" 
0 151  
0 151  
0 151  1 
0 161  
0 161  
0 161  1 
0 051  
0 051  
0 061  
0 061  
0 031  
0 031  
0 031  ""3"" 
0 131  
0 131  
0 131  1 
0 151  
0 151  
0 151  1 
0 161  
0 161  
0 161  1 
0 021  
0 021  
0 021  ""2"" 
0 121  
0 121  
0 121  1 
0 131  
0 131  
0 131  1 
0 151  
0 151  
0 151  1 
0 161  
0 161  
0 161  1 
0 031  
0 031  
0 081  
0 081  
0 081  ""8"" 
0 121  
0 121  
0 121  1 
0 131  
0 131  
0 131  1 
0 151  
0 151  
0 151  1 
0 161  
0 161  
0 161  1 
0 181  
0 181  
0 181  1 
0 071  
0 071  
0 071  ""7"" 
0 121  
0 121  
0 121  1 
0 131  
0 131  
0 131  1 
0 151  
0 151  
0 151  1 
0 161  
0 161  
0 161  1 
0 171  
0 171  
0 171  1 
0 181  
0 181  
0 181  1 
0 041  
0 041  
0 041  ""4"" 
0 021  
0 021  
0 121  
0 121  
0 121  1 
0 131  
0 131  
0 131  1 
0 141  
0 141  
0 141  1 
0 151  
0 151  
0 151  1 
0 161  
0 161  
0 161  1 
0 171  
0 171  
0 171  1 
0 181  
0 181  
0 181  1 
0 081  
0 081  
0 071  
0 071  
0 041  
0 041  
0 0adm  
0 0adm  
0 141  
0 141  
0 141  1 
0 181  
0 181  
0 181  1 
0 131  
0 131  
0 131  1 
0 161  
0 161  
0 161  1 
0 221  
0 221  
0 221  2 
0 251  
0 251  
0 251  2 
0 271  
0 271  
0 271  2 
0 011  
0 011  
0 011  ""1"" 
0 111  
0 111  
0 111  1 
0 121  
0 121  
0 121  1 
0 131  
0 131  
0 131  1 
0 141  
0 141  
0 141  1 
0 151  
0 151  
0 151  1 
0 161  
0 161  
0 161  1 
0 171  
0 171  
0 171  1 
0 181  
0 181  
0 181  1 
0 0adm  
0 0adm  
0 0adm  ""GSP"" 
0 011  
0 011  
0 0adm  
0 0adm  
0 171  
0 171  
0 171  1 
0 181  
0 181  
0 181  1 
0 161  
0 161  
0 161  1 
0 151  
0 151  
0 151  1 
0 211  
0 211  
0 211  2 
0 221  
0 221  
0 221  2 
0 241  
0 241  
0 241  2 
0 231  
0 231  
0 231  2 
0 0adm  
0 0adm  
0 0adm  ""VCG"" 
0 0adm  
0 0adm  
0 0adm  ""VCG"" 
0 0adm  
0 0adm  
0 0adm  ""GSP"" 
0 0adm  
0 0adm  
0 011  
0 011  
0 011  0 
0 021  
0 021  
0 021  0 
0 031  
0 031  
0 031  0 
0 041  
0 041  
0 041  0 
0 051  
0 051  
0 051  0 
0 061  
0 061  
0 061  0 
0 071  
0 071  
0 071  0 
0 081  
0 081  
0 081  0 
0 021  
0 021  
0 021  ""Wait"" 
0 031  
0 031  
0 031  ""Wait"" 
0 011  
0 011  
0 011  ""Wait"" 
0 061  
0 061  
0 061  ""Wait"" 
0 051  
0 051  
0 051  ""Wait"" 
0 041  
0 041  
0 041  ""Wait"" 
0 071  
0 071  
0 071  ""Wait"" 
0 081  
0 081  
0 081  ""Wait"" 
0 061  
0 061  
0 031  
0 031  
0 051  
0 051  
0 021  
0 021  
0 071  
0 071  
0 081  
0 081  
0 161  
0 161  
0 151  
0 151  
0 171  
0 171  
0 181  
0 181  
0 051  
0 051  
0 061  
0 061  
0 041  
0 041  
0 151  
0 151  
1 051  
1 051  
1 051  1 
0 161  
0 161  
1 061  
1 061  
1 061  1 
1 051  
1 051  
1 051  ""Start"" 
1 061  
1 061  
1 061  ""Start"" 
0 081  
0 081  
0 071  
0 071  
0 181  
0 181  
1 081  
1 081  
1 081  1 
1 081  
1 081  
1 081  ""Start"" 
0 171  
0 171  
1 071  
1 071  
1 071  1 
1 071  
1 071  
1 071  ""Start"" 
0 011  
0 011  
0 231  
0 231  
0 221  
0 221  
0 241  
0 241  
0 211  
0 211  
0 041  
0 041  
0 021  
0 021  
0 031  
0 031  
0 241  
0 241  
1 041  
1 041  
1 041  1 
0 231  
0 231  
1 031  
1 031  
1 031  1 
0 221  
0 221  
1 021  
1 021  
1 021  1 
1 031  
1 031  
1 031  ""Start"" 
1 041  
1 041  
1 041  ""Start"" 
1 021  
1 021  
1 021  ""Start"" 
0 011  
0 011  
0 211  
0 211  
1 011  
1 011  
1 011  1 
1 011  
1 011  
1 011  ""Start"" 
1 061  
1 061  
1 051  
1 051  
1 081  
1 081  
1 071  
1 071  
1 151  
1 151  
1 161  
1 161  
1 181  
1 181  
1 171  
1 171  
1 151  
1 151  
1 161  
1 161  
1 181  
1 181  
1 171  
1 171  
1 161  
1 161  
1 161  true  ""5"" 
1 151  
1 151  
1 151  true  ""5"" 
1 161  
1 161  
1 161  true  ""5"" 
1 151  
1 151  
1 151  true  ""5"" 
1 181  
1 181  
1 181  true  ""5"" 
1 031  
1 031  
1 171  
1 171  
1 171  true  ""5"" 
1 161  
1 161  
1 161  true  ""5"" 
1 151  
1 151  
1 151  true  ""5"" 
1 181  
1 181  
1 181  true  ""5"" 
1 021  
1 021  
1 171  
1 171  
1 171  true  ""5"" 
1 171  
1 171  
1 171  true  ""5"" 
1 181  
1 181  
1 181  true  ""5"" 
1 041  
1 041  
1 161  
1 161  
1 151  
1 151  
1 181  
1 181  
1 171  
1 171  
1 151  
1 151  
1 151  1 
1 151  
1 151  
1 151  [""current_slot"" -1  5  190  1900  0  10  0  1900 
1 151  -1  6  380  7600  0  20  0  7600 
1 151  -1  7  400  12000  0  30  0  12000 
1 151  -1  8  1  40  0  40  0  40 
1 151  
1 161  
1 161  
1 151  
1 151  
1 181  
1 181  
1 011  
1 011  
1 171  
1 171  
1 221  
1 221  
1 231  
1 231  
1 241  
1 241  
1 151  
1 151  
1 151  2 
1 151  
1 151  
1 151  [""current_slot"" -1  5  190  1900  0  10  0  1900 
1 151  -1  6  380  7600  0  20  0  7600 
1 151  -1  7  400  12000  0  30  0  12000 
1 151  -1  8  1  40  0  40  0  40 
1 151  
1 211  
1 211  
1 221  
1 221  
1 231  
1 231  
1 241  
1 241  
1 211  
1 211  
1 231  
1 231  
1 231  true  ""1"" 
1 221  
1 221  
1 221  true  ""1"" 
1 241  
1 241  
1 241  true  ""1"" 
1 231  
1 231  
1 231  true  ""1"" 
1 221  
1 221  
1 221  true  ""1"" 
1 241  
1 241  
1 241  true  ""1"" 
1 231  
1 231  
1 231  true  ""1"" 
1 221  
1 221  
1 221  true  ""1"" 
1 241  
1 241  
1 241  true  ""1"" 
1 211  
1 211  
1 211  true  ""1"" 
1 211  
1 211  
1 211  true  ""1"" 
1 231  
1 231  
1 241  
1 241  
1 221  
1 221  
1 181  
1 181  
1 151  
1 151  
1 161  
1 161  
1 171  
1 171  
1 151  
1 151  
1 151  3 
1 151  
1 151  
1 151  [""current_slot"" -1  5  190  1900  0  10  0  1900 
1 151  -1  6  380  7600  0  20  0  7600 
1 151  -1  7  400  12000  0  30  0  12000 
1 151  -1  8  1  40  0  40  0  40 
1 151  
1 211  
1 211  
1 211  true  ""1"" 
1 211  
1 211  
1 211  
1 211  
1 211  1 
1 211  
1 211  
1 211  [""current_slot"" -1  1  190  1900  0  10  0  1900 
1 211  -1  2  380  7600  0  20  0  7600 
1 211  -1  3  400  12000  0  30  0  12000 
1 211  -1  4  1  40  0  40  0  40 
1 211  
1 181  
1 181  
1 151  
1 151  
1 161  
1 161  
1 171  
1 171  
1 151  
1 151  
1 151  4 
1 151  
1 151  
1 151  [""current_slot"" -1  5  190  1900  0  10  0  1900 
1 151  -1  6  380  7600  0  20  0  7600 
1 151  -1  7  400  12000  0  30  0  12000 
1 151  -1  8  1  40  0  40  0  40 
1 151  
1 231  
1 231  
1 221  
1 221  
1 241  
1 241  
1 211  
1 211  
1 211  
1 211  
1 211  2 
1 211  
1 211  
1 211  [""current_slot"" -1  1  190  1900  0  10  0  1900 
1 211  -1  2  380  7600  0  20  0  7600 
1 211  -1  3  400  12000  0  30  0  12000 
1 211  -1  4  1  40  0  40  0  40 
1 211  
1 211  
1 211  
1 211  ""1""  ""0.86"" 
1 161  
1 161  
1 151  
1 151  
1 171  
1 171  
1 181  
1 181  
1 151  
1 151  
1 151  5 
1 151  
1 151  
1 151  [""current_slot"" -1  5  190  1900  0  10  0  1900 
1 151  -1  6  380  7600  0  20  0  7600 
1 151  -1  7  400  12000  0  30  0  12000 
1 151  -1  8  1  40  0  40  0  40 
1 151  
1 211  
1 211  
1 211  ""1""  ""1.11"" 
1 241  
1 241  
1 221  
1 221  
1 231  
1 231  
1 211  
1 211  
1 211  ""1""  ""8.77"" 
1 211  
1 211  
1 211  
1 211  
1 211  3 
1 211  
1 211  
1 211  [""current_slot"" 0  1  400  4000  8.77  10  0  4000 
1 211  1  2  380  7600  0  20  0  7600 
1 211  2  3  190  5700  0  30  0  5700 
1 211  3  4  0  0  0  40  0  0 
1 211  
1 211  
1 211  
1 211  ""1""  ""14.94"" 
1 211  
1 211  
1 211  ""1""  ""27.04"" 
1 181  
1 181  
1 161  
1 161  
1 151  
1 151  
1 171  
1 171  
1 151  
1 151  
1 151  6 
1 211  
1 211  
1 211  ""1""  ""28.77"" 
1 151  
1 151  
1 151  [""current_slot"" -1  5  190  1900  0  10  0  1900 
1 151  -1  6  380  7600  0  20  0  7600 
1 151  -1  7  400  12000  0  30  0  12000 
1 151  -1  8  1  40  0  40  0  40 
1 151  
1 241  
1 241  
1 221  
1 221  
1 231  
1 231  
1 211  
1 211  
1 211  
1 211  
1 211  4 
1 211  
1 211  
1 211  [""current_slot"" 0  1  400  4000  28.77  10  0  4000 
1 211  1  2  380  7600  0  20  0  7600 
1 211  2  3  190  5700  0  30  0  5700 
1 211  3  4  0  0  0  40  0  0 
1 211  
1 161  
1 161  
1 151  
1 151  
1 181  
1 181  
1 171  
1 171  
1 151  
1 151  
1 151  7 
1 151  
1 151  
1 151  [""current_slot"" -1  5  190  1900  0  10  0  1900 
1 151  -1  6  380  7600  0  20  0  7600 
1 151  -1  7  400  12000  0  30  0  12000 
1 151  -1  8  1  40  0  40  0  40 
1 151  
1 231  
1 231  
1 221  
1 221  
1 241  
1 241  
1 211  
1 211  
1 211  
1 211  
1 211  5 
1 211  
1 211  
1 211  [""current_slot"" 0  1  400  4000  28.77  10  0  4000 
1 211  1  2  380  7600  0  20  0  7600 
1 211  2  3  190  5700  0  30  0  5700 
1 211  3  4  0  0  0  40  0  0 
1 211  
1 181  
1 181  
1 161  
1 161  
1 151  
1 151  
1 171  
1 171  
1 151  
1 151  
1 151  8 
1 151  
1 151  
1 151  [""current_slot"" -1  5  190  1900  0  10  0  1900 
1 151  -1  6  380  7600  0  20  0  7600 
1 151  -1  7  400  12000  0  30  0  12000 
1 151  -1  8  1  40  0  40  0  40 
1 151  
1 241  
1 241  
1 221  
1 221  
1 231  
1 231  
1 211  
1 211  
1 211  
1 211  
1 211  6 
1 211  
1 211  
1 211  [""current_slot"" 0  1  400  4000  28.77  10  0  4000 
1 211  1  2  380  7600  0  20  0  7600 
1 211  2  3  190  5700  0  30  0  5700 
1 211  3  4  0  0  0  40  0  0 
1 211  
1 181  
1 181  
1 161  
1 161  
1 151  
1 151  
1 171  
1 171  
1 151  
1 151  
1 151  9 
1 151  
1 151  
1 151  [""current_slot"" -1  5  190  1900  0  10  0  1900 
1 151  -1  6  380  7600  0  20  0  7600 
1 151  -1  7  400  12000  0  30  0  12000 
1 151  -1  8  1  40  0  40  0  40 
1 151  
1 231  
1 231  
1 241  
1 241  
1 221  
1 221  
1 211  
1 211  
1 211  
1 211  
1 211  7 
1 211  
1 211  
1 211  [""current_slot"" 0  1  400  4000  28.77  10  0  4000 
1 211  1  2  380  7600  0  20  0  7600 
1 211  2  3  190  5700  0  30  0  5700 
1 211  3  4  0  0  0  40  0  0 
1 211  
1 221  
1 221  
1 221  ""2""  ""21.48"" 
1 181  
1 181  
1 151  
1 151  
1 161  
1 161  
1 171  
1 171  
1 151  
1 151  
1 151  10 
1 151  
1 151  
1 151  [""current_slot"" -1  5  190  1900  0  10  0  1900 
1 151  -1  6  380  7600  0  20  0  7600 
1 151  -1  7  400  12000  0  30  0  12000 
1 151  -1  8  1  40  0  40  0  40 
1 151  
1 181  
1 181  
1 181  ""8""  ""38.89"" 
1 231  
1 231  
1 241  
1 241  
1 221  
1 221  
1 211  
1 211  
1 211  
1 211  
1 211  8 
1 211  
1 211  
1 211  [""current_slot"" 0  1  400  4000  28.77  10  0  4000 
1 211  1  2  380  7600  21.48  20  0  7600 
1 211  2  3  190  5700  0  30  0  5700 
1 211  3  4  0  0  0  40  0  0 
1 211  
1 181  
1 181  
1 161  
1 161  
1 151  
1 151  
1 171  
1 171  
1 151  
1 151  
1 151  11 
1 151  
1 151  
1 151  [""current_slot"" -1  5  190  1900  0  10  0  1900 
1 151  -1  6  380  7600  0  20  0  7600 
1 151  -1  7  400  12000  0  30  0  12000 
1 151  -1  8  1  40  38.89  40  0  40 
1 151  
1 231  
1 231  
1 241  
1 241  
1 221  
1 221  
1 211  
1 211  
1 211  
1 211  
1 211  9 
1 211  
1 211  
1 211  [""current_slot"" 0  1  400  4000  28.77  10  8592  -4592 
1 211  1  2  380  7600  21.48  20  0  7600 
1 211  2  3  190  5700  0  30  0  5700 
1 211  3  4  0  0  0  40  0  0 
1 211  
1 181  
1 181  
1 161  
1 161  
1 151  
1 151  
1 171  
1 171  
1 151  
1 151  
1 151  12 
1 151  
1 151  
1 151  [""current_slot"" -1  5  190  1900  0  10  0  1900 
1 151  -1  6  380  7600  0  20  0  7600 
1 151  -1  7  400  12000  0  30  15556  -3556 
1 151  -1  8  1  40  38.89  40  0  40 
1 151  
1 231  
1 231  
1 221  
1 221  
1 241  
1 241  
1 211  
1 211  
1 211  
1 211  
1 211  10 
1 211  
1 211  
1 211  [""current_slot"" 0  1  400  4000  28.77  10  8592  -4592 
1 211  1  2  380  7600  21.48  20  0  7600 
1 211  2  3  190  5700  0  30  0  5700 
1 211  3  4  0  0  0  40  0  0 
1 211  
1 181  
1 181  
1 161  
1 161  
1 151  
1 151  
1 171  
1 171  
1 151  
1 151  
1 151  13 
1 151  
1 151  
1 151  [""current_slot"" -1  5  190  1900  0  10  0  1900 
1 151  -1  6  380  7600  0  20  0  7600 
1 151  -1  7  400  12000  0  30  15556  -3556 
1 151  -1  8  1  40  38.89  40  0  40 
1 151  
1 231  
1 231  
1 221  
1 221  
1 241  
1 241  
1 211  
1 211  
1 211  
1 211  
1 211  11 
1 211  
1 211  
1 211  [""current_slot"" 0  1  400  4000  28.77  10  8592  -4592 
1 211  1  2  380  7600  21.48  20  0  7600 
1 211  2  3  190  5700  0  30  0  5700 
1 211  3  4  0  0  0  40  0  0 
1 211  
1 181  
1 181  
1 151  
1 151  
1 161  
1 161  
1 171  
1 171  
1 151  
1 151  
1 151  14 
1 151  
1 151  
1 151  [""current_slot"" -1  5  190  1900  0  10  0  1900 
1 151  -1  6  380  7600  0  20  0  7600 
1 151  -1  7  400  12000  0  30  15556  -3556 
1 151  -1  8  1  40  38.89  40  0  40 
1 151  
1 231  
1 231  
1 221  
1 221  
1 241  
1 241  
1 211  
1 211  
1 211  
1 211  
1 211  12 
1 211  
1 211  
1 211  [""current_slot"" 0  1  400  4000  28.77  10  8592  -4592 
1 211  1  2  380  7600  21.48  20  0  7600 
1 211  2  3  190  5700  0  30  0  5700 
1 211  3  4  0  0  0  40  0  0 
1 211  
1 181  
1 181  
1 161  
1 161  
1 151  
1 151  
1 171  
1 171  
1 151  
1 151  
1 151  15 
1 151  
1 151  
1 151  [""current_slot"" -1  5  190  1900  0  10  0  1900 
1 151  -1  6  380  7600  0  20  0  7600 
1 151  -1  7  400  12000  0  30  15556  -3556 
1 151  -1  8  1  40  38.89  40  0  40 
1 151  
1 221  
1 221  
1 231  
1 231  
1 211  
1 211  
1 241  
1 241  
1 211  
1 211  
1 211  13 
1 211  
1 211  
1 211  [""current_slot"" 0  1  400  4000  28.77  10  8592  -4592 
1 211  1  2  380  7600  21.48  20  0  7600 
1 211  2  3  190  5700  0  30  0  5700 
1 211  3  4  0  0  0  40  0  0 
1 211  
1 171  
1 171  
1 171  ""7""  ""30.25"" 
1 181  
1 181  
1 161  
1 161  
1 151  
1 151  
1 171  
1 171  
1 151  
1 151  
1 151  16 
1 151  
1 151  
1 151  [""current_slot"" -1  5  190  1900  0  10  0  1900 
1 151  -1  6  380  7600  0  20  0  7600 
1 151  -1  7  400  12000  30.25  30  15556  -3556 
1 151  -1  8  1  40  38.89  40  0  40 
1 151  
1 221  
1 221  
1 231  
1 231  
1 241  
1 241  
1 211  
1 211  
1 211  
1 211  
1 211  14 
1 211  
1 211  
1 211  [""current_slot"" 0  1  400  4000  28.77  10  8592  -4592 
1 211  1  2  380  7600  21.48  20  0  7600 
1 211  2  3  190  5700  0  30  0  5700 
1 211  3  4  0  0  0  40  0  0 
1 211  
1 181  
1 181  
1 151  
1 151  
1 161  
1 161  
1 171  
1 171  
1 151  
1 151  
1 151  17 
1 151  
1 151  
1 151  [""current_slot"" -1  5  190  1900  0  10  0  1900 
1 151  -1  6  380  7600  0  20  11495  -3895 
1 151  -1  7  400  12000  30.25  30  15556  -3556 
1 151  -1  8  1  40  38.89  40  0  40 
1 151  
1 221  
1 221  
1 231  
1 231  
1 241  
1 241  
1 211  
1 211  
1 211  
1 211  
1 211  15 
1 211  
1 211  
1 211  [""current_slot"" 0  1  400  4000  28.77  10  8592  -4592 
1 211  1  2  380  7600  21.48  20  0  7600 
1 211  2  3  190  5700  0  30  0  5700 
1 211  3  4  0  0  0  40  0  0 
1 211  
1 161  
1 161  
1 151  
1 151  
1 171  
1 171  
1 181  
1 181  
1 151  
1 151  
1 151  18 
1 151  
1 151  
1 151  [""current_slot"" -1  5  190  1900  0  10  0  1900 
1 151  -1  6  380  7600  0  20  11495  -3895 
1 151  -1  7  400  12000  30.25  30  15556  -3556 
1 151  -1  8  1  40  38.89  40  0  40 
1 151  
1 221  
1 221  
1 231  
1 231  
1 231  ""3""  ""37.04"" 
1 241  
1 241  
1 211  
1 211  
1 231  
1 231  
1 211  
1 211  
1 211  16 
1 211  
1 211  
1 211  [""current_slot"" 0  1  400  4000  28.77  10  8592  -4592 
1 211  1  2  380  7600  21.48  20  0  7600 
1 211  2  3  190  5700  37.04  30  0  5700 
1 211  3  4  0  0  0  40  0  0 
1 211  
1 161  
1 161  
1 151  
1 151  
1 171  
1 171  
1 181  
1 181  
1 151  
1 151  
1 151  19 
1 151  
1 151  
1 151  [""current_slot"" -1  5  190  1900  0  10  0  1900 
1 151  -1  6  380  7600  0  20  11495  -3895 
1 151  -1  7  400  12000  30.25  30  15556  -3556 
1 151  -1  8  1  40  38.89  40  0  40 
1 151  
1 221  
1 221  
1 231  
1 231  
1 241  
1 241  
1 211  
1 211  
1 211  
1 211  
1 211  17 
1 211  
1 211  
1 211  [""current_slot"" 0  3  400  12000  37.04  30  11508  492 
1 211  1  1  380  3800  28.77  10  8162.4  -4362.4 
1 211  2  2  190  3800  21.48  20  0  3800 
1 211  3  4  0  0  0  40  0  0 
1 211  
1 161  
1 161  
1 181  
1 181  
1 171  
1 171  
1 151  
1 151  
1 151  
1 151  
1 151  20 
1 151  
1 151  
1 151  [""current_slot"" -1  5  190  1900  0  10  0  1900 
1 151  -1  6  380  7600  0  20  11495  -3895 
1 151  -1  7  400  12000  30.25  30  15556  -3556 
1 151  -1  8  1  40  38.89  40  0  40 
1 151  
1 231  
1 231  
1 221  
1 221  
1 241  
1 241  
1 211  
1 211  
1 211  
1 211  
1 211  18 
1 211  
1 211  
1 211  [""current_slot"" 0  3  400  12000  37.04  30  11508  492 
1 211  1  1  380  3800  28.77  10  8162.4  -4362.4 
1 211  2  2  190  3800  21.48  20  0  3800 
1 211  3  4  0  0  0  40  0  0 
1 211  
1 161  
1 161  
1 151  
1 151  
1 181  
1 181  
1 171  
1 171  
1 151  
1 151  
1 151  21 
1 151  
1 151  
1 151  [""current_slot"" -1  5  190  1900  0  10  0  1900 
1 151  -1  6  380  7600  0  20  11495  -3895 
1 151  -1  7  400  12000  30.25  30  15556  -3556 
1 151  -1  8  1  40  38.89  40  0  40 
1 151  
1 221  
1 221  
1 231  
1 231  
1 241  
1 241  
1 211  
1 211  
1 211  
1 211  
1 211  19 
1 211  
1 211  
1 211  [""current_slot"" 0  3  400  12000  37.04  30  11508  492 
1 211  1  1  380  3800  28.77  10  8162.4  -4362.4 
1 211  2  2  190  3800  21.48  20  0  3800 
1 211  3  4  0  0  0  40  0  0 
1 211  
1 151  
1 151  
1 161  
1 161  
1 181  
1 181  
1 171  
1 171  
1 151  
1 151  
1 151  22 
1 151  
1 151  
1 151  [""current_slot"" -1  5  190  1900  0  10  0  1900 
1 151  -1  6  380  7600  0  20  11495  -3895 
1 151  -1  7  400  12000  30.25  30  15556  -3556 
1 151  -1  8  1  40  38.89  40  0  40 
1 151  
1 231  
1 231  
1 241  
1 241  
1 221  
1 221  
1 211  
1 211  
1 211  
1 211  
1 211  20 
1 211  
1 211  
1 211  [""current_slot"" 0  3  400  12000  37.04  30  11508  492 
1 211  1  1  380  3800  28.77  10  8162.4  -4362.4 
1 211  2  2  190  3800  21.48  20  0  3800 
1 211  3  4  0  0  0  40  0  0 
1 211  
1 161  
1 161  
1 161  ""6""  ""20.74"" 
1 161  
1 161  
1 151  
1 151  
1 181  
1 181  
1 171  
1 171  
1 151  
1 151  
1 151  23 
1 151  
1 151  
1 151  [""current_slot"" -1  5  190  1900  0  10  0  1900 
1 151  -1  6  380  7600  20.74  20  11495  -3895 
1 151  -1  7  400  12000  30.25  30  15556  -3556 
1 151  -1  8  1  40  38.89  40  0  40 
1 151  
1 231  
1 231  
1 241  
1 241  
1 221  
1 221  
1 211  
1 211  
1 211  
1 211  
1 211  21 
1 211  
1 211  
1 211  [""current_slot"" 0  3  400  12000  37.04  30  11508  492 
1 211  1  1  380  3800  28.77  10  8162.4  -4362.4 
1 211  2  2  190  3800  21.48  20  0  3800 
1 211  3  4  0  0  0  40  0  0 
1 211  
1 151  
1 151  
1 161  
1 161  
1 181  
1 181  
1 171  
1 171  
1 151  
1 151  
1 151  24 
1 151  
1 151  
1 151  [""current_slot"" -1  5  190  1900  0  10  3940.6  -2040.6 
1 151  -1  6  380  7600  20.74  20  11495  -3895 
1 151  -1  7  400  12000  30.25  30  15556  -3556 
1 151  -1  8  1  40  38.89  40  0  40 
1 151  
1 231  
1 231  
1 221  
1 221  
1 241  
1 241  
1 211  
1 211  
1 211  
1 211  
1 211  22 
1 211  
1 211  
1 211  [""current_slot"" 0  3  400  12000  37.04  30  11508  492 
1 211  1  1  380  3800  28.77  10  8162.4  -4362.4 
1 211  2  2  190  3800  21.48  20  0  3800 
1 211  3  4  0  0  0  40  0  0 
1 211  
1 151  
1 151  
1 161  
1 161  
1 181  
1 181  
1 171  
1 171  
1 151  
1 151  
1 151  25 
1 151  
1 151  
1 151  [""current_slot"" -1  5  190  1900  0  10  3940.6  -2040.6 
1 151  -1  6  380  7600  20.74  20  11495  -3895 
1 151  -1  7  400  12000  30.25  30  15556  -3556 
1 151  -1  8  1  40  38.89  40  0  40 
1 151  
1 231  
1 231  
1 221  
1 221  
1 241  
1 241  
1 211  
1 211  
1 211  
1 211  
1 211  23 
1 211  
1 211  
1 211  [""current_slot"" 0  3  400  12000  37.04  30  11508  492 
1 211  1  1  380  3800  28.77  10  8162.4  -4362.4 
1 211  2  2  190  3800  21.48  20  0  3800 
1 211  3  4  0  0  0  40  0  0 
1 211  
1 161  
1 161  
1 151  
1 151  
1 181  
1 181  
1 171  
1 171  
1 151  
1 151  
1 151  26 
1 151  
1 151  
1 151  [""current_slot"" -1  5  190  1900  0  10  3940.6  -2040.6 
1 151  -1  6  380  7600  20.74  20  11495  -3895 
1 151  -1  7  400  12000  30.25  30  15556  -3556 
1 151  -1  8  1  40  38.89  40  0  40 
1 151  
1 241  
1 241  
1 221  
1 221  
1 231  
1 231  
1 211  
1 211  
1 211  
1 211  
1 211  24 
1 211  
1 211  
1 211  [""current_slot"" 0  3  400  12000  37.04  30  11508  492 
1 211  1  1  380  3800  28.77  10  8162.4  -4362.4 
1 211  2  2  190  3800  21.48  20  0  3800 
1 211  3  4  0  0  0  40  0  0 
1 211  
1 161  
1 161  
1 151  
1 151  
1 181  
1 181  
1 171  
1 171  
1 151  
1 151  
1 151  27 
1 151  
1 151  
1 151  [""current_slot"" -1  5  190  1900  0  10  3940.6  -2040.6 
1 151  -1  6  380  7600  20.74  20  11495  -3895 
1 151  -1  7  400  12000  30.25  30  15556  -3556 
1 151  -1  8  1  40  38.89  40  0  40 
1 151  
1 151  
1 151  
1 151  ""5""  ""9.88"" 
1 231  
1 231  
1 221  
1 221  
1 241  
1 241  
1 211  
1 211  
1 211  
1 211  
1 211  25 
1 211  
1 211  
1 211  [""current_slot"" 0  3  400  12000  37.04  30  11508  492 
1 211  1  1  380  3800  28.77  10  8162.4  -4362.4 
1 211  2  2  190  3800  21.48  20  0  3800 
1 211  3  4  0  0  0  40  0  0 
1 211  
1 151  
1 151  
1 161  
1 161  
1 181  
1 181  
1 171  
1 171  
1 151  
1 151  
1 151  28 
1 151  
1 151  
1 151  [""current_slot"" 0  8  400  16000  38.89  40  12100  16000 
1 151  1  7  380  11400  30.25  30  7881.2  -4156 
1 151  2  6  190  3800  20.74  20  1877.2  -7695 
1 151  3  5  0  0  9.88  10  0  0 
1 151  
1 241  
1 241  
1 231  
1 231  
1 221  
1 221  
1 211  
1 211  
1 211  
1 211  
1 211  26 
1 211  
1 211  
1 211  [""current_slot"" 0  3  400  12000  37.04  30  11508  492 
1 211  1  1  380  3800  28.77  10  8162.4  -4362.4 
1 211  2  2  190  3800  21.48  20  0  3800 
1 211  3  4  0  0  0  40  0  0 
1 211  
1 161  
1 161  
1 151  
1 151  
1 171  
1 171  
1 181  
1 181  
1 151  
1 151  
1 151  29 
1 151  
1 151  
1 151  [""current_slot"" 0  8  400  16000  38.89  40  12100  3900 
1 151  1  7  380  11400  30.25  30  7881.2  3518.8 
1 151  2  6  190  3800  20.74  20  1877.2  1922.8 
1 151  3  5  0  0  9.88  10  0  0 
1 151  
1 241  
1 241  
1 231  
1 231  
1 221  
1 221  
1 211  
1 211  
1 211  
1 211  
1 211  27 
1 211  
1 211  
1 211  [""current_slot"" 0  3  400  12000  37.04  30  11508  492 
1 211  1  1  380  3800  28.77  10  8162.4  -4362.4 
1 211  2  2  190  3800  21.48  20  0  3800 
1 211  3  4  0  0  0  40  0  0 
1 211  
1 161  
1 161  
1 151  
1 151  
1 181  
1 181  
1 171  
1 171  
1 151  
1 151  
1 151  30 
1 151  
1 151  
1 151  [""current_slot"" 0  8  400  16000  38.89  40  12100  3900 
1 151  1  7  380  11400  30.25  30  7881.2  3518.8 
1 151  2  6  190  3800  20.74  20  1877.2  1922.8 
1 151  3  5  0  0  9.88  10  0  0 
1 151  
1 231  
1 231  
1 221  
1 221  
1 241  
1 241  
1 211  
1 211  
1 211  
1 211  
1 211  28 
1 211  
1 211  
1 211  [""current_slot"" 0  3  400  12000  37.04  30  11508  492 
1 211  1  1  380  3800  28.77  10  8162.4  -4362.4 
1 211  2  2  190  3800  21.48  20  0  3800 
1 211  3  4  0  0  0  40  0  0 
1 211  
1 161  
1 161  
1 151  
1 151  
1 171  
1 171  
1 181  
1 181  
1 241  
1 241  
1 241  ""4""  ""33.95"" 
1 151  
1 151  
1 151  31 
1 151  
1 151  
1 151  [""current_slot"" 0  8  400  16000  38.89  40  12100  3900 
1 151  1  7  380  11400  30.25  30  7881.2  3518.8 
1 151  2  6  190  3800  20.74  20  1877.2  1922.8 
1 151  3  5  0  0  9.88  10  0  0 
1 151  
1 231  
1 231  
1 221  
1 221  
1 241  
1 241  
1 211  
1 211  
1 211  
1 211  
1 211  29 
1 211  
1 211  
1 211  [""current_slot"" 0  3  400  12000  37.04  30  11508  492 
1 211  1  1  380  3800  28.77  10  8162.4  -4362.4 
1 211  2  2  190  3800  21.48  20  0  3800 
1 211  3  4  0  0  33.95  40  0  0 
1 211  
1 241  
1 241  
1 241  ""4""  ""34.20"" 
1 161  
1 161  
1 151  
1 151  
1 181  
1 181  
1 171  
1 171  
1 241  
1 241  
1 241  ""4""  ""36.42"" 
1 151  
1 151  
1 151  32 
1 151  
1 151  
1 151  [""current_slot"" 0  8  400  16000  38.89  40  12100  3900 
1 151  1  7  380  11400  30.25  30  7881.2  3518.8 
1 151  2  6  190  3800  20.74  20  1877.2  1922.8 
1 151  3  5  0  0  9.88  10  0  0 
1 151  
1 241  
1 241  
1 241  ""4""  ""37.90"" 
1 241  
1 241  
1 241  ""4""  ""39.63"" 
1 241  
1 241  
1 241  ""4""  ""39.88"" 
1 241  
1 241  
1 241  ""4""  ""40.12"" 
1 231  
1 231  
1 221  
1 221  
1 241  
1 241  
1 211  
1 211  
1 211  
1 211  
1 211  30 
1 211  
1 211  
1 211  [""current_slot"" 0  3  400  12000  37.04  30  13580  -1580 
1 211  1  4  380  15200  40.12  40  10932.6  4267.4 
1 211  2  1  190  1900  28.77  10  4081.2  -2181.2 
1 211  3  2  0  0  21.48  20  0  0 
1 211  
1 151  
1 151  
1 161  
1 161  
1 181  
1 181  
1 171  
1 171  
1 151  
1 151  
1 151  33 
1 151  
1 151  
1 151  [""current_slot"" 0  8  400  16000  38.89  40  12100  3900 
1 151  1  7  380  11400  30.25  30  7881.2  3518.8 
1 151  2  6  190  3800  20.74  20  1877.2  1922.8 
1 151  3  5  0  0  9.88  10  0  0 
1 151  
1 241  
1 241  
1 231  
1 231  
1 221  
1 221  
1 211  
1 211  
1 211  
1 211  
1 211  31 
1 211  
1 211  
1 211  [""current_slot"" 0  4  400  16000  40.12  40  14816  1184 
1 211  1  3  380  11400  37.04  30  10932.6  467.39999999999964 
1 211  2  1  190  1900  28.77  10  4081.2  -2181.2 
1 211  3  2  0  0  21.48  20  0  0 
1 211  
1 151  
1 151  
1 161  
1 161  
1 181  
1 181  
1 171  
1 171  
1 151  
1 151  
1 151  34 
1 151  
1 151  
1 151  [""current_slot"" 0  8  400  16000  38.89  40  12100  3900 
1 151  1  7  380  11400  30.25  30  7881.2  3518.8 
1 151  2  6  190  3800  20.74  20  1877.2  1922.8 
1 151  3  5  0  0  9.88  10  0  0 
1 151  
1 231  
1 231  
1 221  
1 221  
1 241  
1 241  
1 211  
1 211  
1 211  
1 211  
1 211  32 
1 211  
1 211  
1 211  [""current_slot"" 0  4  400  16000  40.12  40  14816  1184 
1 211  1  3  380  11400  37.04  30  10932.6  467.39999999999964 
1 211  2  1  190  1900  28.77  10  4081.2  -2181.2 
1 211  3  2  0  0  21.48  20  0  0 
1 211  
1 151  
1 151  
1 161  
1 161  
1 181  
1 181  
1 171  
1 171  
1 151  
1 151  
1 151  35 
1 151  
1 151  
1 151  [""current_slot"" 0  8  400  16000  38.89  40  12100  3900 
1 151  1  7  380  11400  30.25  30  7881.2  3518.8 
1 151  2  6  190  3800  20.74  20  1877.2  1922.8 
1 151  3  5  0  0  9.88  10  0  0 
1 151  
1 241  
1 241  
1 221  
1 221  
1 231  
1 231  
1 211  
1 211  
1 211  
1 211  
1 211  33 
1 211  
1 211  
1 211  [""current_slot"" 0  4  400  16000  40.12  40  14816  1184 
1 211  1  3  380  11400  37.04  30  10932.6  467.39999999999964 
1 211  2  1  190  1900  28.77  10  4081.2  -2181.2 
1 211  3  2  0  0  21.48  20  0  0 
1 211  
1 161  
1 161  
1 151  
1 151  
1 171  
1 171  
1 181  
1 181  
1 151  
1 151  
1 151  36 
1 151  
1 151  
1 151  [""current_slot"" 0  8  400  16000  38.89  40  12100  3900 
1 151  1  7  380  11400  30.25  30  7881.2  3518.8 
1 151  2  6  190  3800  20.74  20  1877.2  1922.8 
1 151  3  5  0  0  9.88  10  0  0 
1 151  
1 231  
1 231  
1 221  
1 221  
1 241  
1 241  
1 211  
1 211  
1 211  
1 211  
1 211  34 
1 211  
1 211  
1 211  [""current_slot"" 0  4  400  16000  40.12  40  14816  1184 
1 211  1  3  380  11400  37.04  30  10932.6  467.39999999999964 
1 211  2  1  190  1900  28.77  10  4081.2  -2181.2 
1 211  3  2  0  0  21.48  20  0  0 
1 211  
1 151  
1 151  
1 161  
1 161  
1 181  
1 181  
1 171  
1 171  
1 151  
1 151  
1 151  37 
1 151  
1 151  
1 151  [""current_slot"" 0  8  400  16000  38.89  40  12100  3900 
1 151  1  7  380  11400  30.25  30  7881.2  3518.8 
1 151  2  6  190  3800  20.74  20  1877.2  1922.8 
1 151  3  5  0  0  9.88  10  0  0 
1 151  
1 221  
1 221  
1 231  
1 231  
1 241  
1 241  
1 211  
1 211  
1 211  
1 211  
1 211  35 
1 211  
1 211  
1 211  [""current_slot"" 0  4  400  16000  40.12  40  14816  1184 
1 211  1  3  380  11400  37.04  30  10932.6  467.39999999999964 
1 211  2  1  190  1900  28.77  10  4081.2  -2181.2 
1 211  3  2  0  0  21.48  20  0  0 
1 211  
1 151  
1 151  
1 161  
1 161  
1 181  
1 181  
1 171  
1 171  
1 151  
1 151  
1 151  38 
1 151  
1 151  
1 151  [""current_slot"" 0  8  400  16000  38.89  40  12100  3900 
1 151  1  7  380  11400  30.25  30  7881.2  3518.8 
1 151  2  6  190  3800  20.74  20  1877.2  1922.8 
1 151  3  5  0  0  9.88  10  0  0 
1 151  
1 231  
1 231  
1 221  
1 221  
1 241  
1 241  
1 211  
1 211  
1 211  
1 211  
1 211  36 
1 211  
1 211  
1 211  [""current_slot"" 0  4  400  16000  40.12  40  14816  1184 
1 211  1  3  380  11400  37.04  30  10932.6  467.39999999999964 
1 211  2  1  190  1900  28.77  10  4081.2  -2181.2 
1 211  3  2  0  0  21.48  20  0  0 
1 211  
1 151  
1 151  
1 161  
1 161  
1 181  
1 181  
1 171  
1 171  
1 151  
1 151  
1 151  39 
1 151  
1 151  
1 151  [""current_slot"" 0  8  400  16000  38.89  40  12100  3900 
1 151  1  7  380  11400  30.25  30  7881.2  3518.8 
1 151  2  6  190  3800  20.74  20  1877.2  1922.8 
1 151  3  5  0  0  9.88  10  0  0 
1 151  
1 241  
1 241  
1 221  
1 221  
1 231  
1 231  
1 211  
1 211  
1 211  
1 211  
1 211  37 
1 211  
1 211  
1 211  [""current_slot"" 0  4  400  16000  40.12  40  14816  1184 
1 211  1  3  380  11400  37.04  30  10932.6  467.39999999999964 
1 211  2  1  190  1900  28.77  10  4081.2  -2181.2 
1 211  3  2  0  0  21.48  20  0  0 
1 211  
1 161  
1 161  
1 151  
1 151  
1 181  
1 181  
1 171  
1 171  
1 151  
1 151  
1 151  40 
1 151  
1 151  
1 151  [""current_slot"" 0  8  400  16000  38.89  40  12100  3900 
1 151  1  7  380  11400  30.25  30  7881.2  3518.8 
1 151  2  6  190  3800  20.74  20  1877.2  1922.8 
1 151  3  5  0  0  9.88  10  0  0 
1 151  
1 231  
1 231  
1 241  
1 241  
1 221  
1 221  
1 211  
1 211  
1 211  
1 211  
1 211  38 
1 211  
1 211  
1 211  [""current_slot"" 0  4  400  16000  40.12  40  14816  1184 
1 211  1  3  380  11400  37.04  30  10932.6  467.39999999999964 
1 211  2  1  190  1900  28.77  10  4081.2  -2181.2 
1 211  3  2  0  0  21.48  20  0  0 
1 211  
1 151  
1 151  
1 161  
1 161  
1 181  
1 181  
1 171  
1 171  
1 151  
1 151  
1 151  41 
1 151  
1 151  
1 151  [""current_slot"" 0  8  400  16000  38.89  40  12100  3900 
1 151  1  7  380  11400  30.25  30  7881.2  3518.8 
1 151  2  6  190  3800  20.74  20  1877.2  1922.8 
1 151  3  5  0  0  9.88  10  0  0 
1 151  
1 231  
1 231  
1 221  
1 221  
1 241  
1 241  
1 211  
1 211  
1 211  
1 211  
1 211  39 
1 211  
1 211  
1 211  [""current_slot"" 0  4  400  16000  40.12  40  14816  1184 
1 211  1  3  380  11400  37.04  30  10932.6  467.39999999999964 
1 211  2  1  190  1900  28.77  10  4081.2  -2181.2 
1 211  3  2  0  0  21.48  20  0  0 
1 211  
1 161  
1 161  
1 151  
1 151  
1 171  
1 171  
1 181  
1 181  
1 151  
1 151  
1 151  42 
1 151  
1 151  
1 151  [""current_slot"" 0  8  400  16000  38.89  40  12100  3900 
1 151  1  7  380  11400  30.25  30  7881.2  3518.8 
1 151  2  6  190  3800  20.74  20  1877.2  1922.8 
1 151  3  5  0  0  9.88  10  0  0 
1 151  
1 231  
1 231  
1 221  
1 221  
1 211  
1 211  
1 241  
1 241  
1 211  
1 211  
1 211  40 
1 211  
1 211  
1 211  [""current_slot"" 0  4  400  16000  40.12  40  14816  1184 
1 211  1  3  380  11400  37.04  30  10932.6  467.39999999999964 
1 211  2  1  190  1900  28.77  10  4081.2  -2181.2 
1 211  3  2  0  0  21.48  20  0  0 
1 211  
1 171  
1 171  
1 161  
1 161  
1 151  
1 151  
1 181  
1 181  
1 151  
1 151  
1 151  43 
1 151  
1 151  
1 151  [""current_slot"" 0  8  400  16000  38.89  40  12100  3900 
1 151  1  7  380  11400  30.25  30  7881.2  3518.8 
1 151  2  6  190  3800  20.74  20  1877.2  1922.8 
1 151  3  5  0  0  9.88  10  0  0 
1 151  
1 241  
1 241  
1 221  
1 221  
1 231  
1 231  
1 211  
1 211  
1 211  
1 211  
1 211  41 
1 211  
1 211  
1 211  [""current_slot"" 0  4  400  16000  40.12  40  14816  1184 
1 211  1  3  380  11400  37.04  30  10932.6  467.39999999999964 
1 211  2  1  190  1900  28.77  10  4081.2  -2181.2 
1 211  3  2  0  0  21.48  20  0  0 
1 211  
1 151  
1 151  
1 161  
1 161  
1 181  
1 181  
1 171  
1 171  
1 151  
1 151  
1 151  44 
1 151  
1 151  
1 151  [""current_slot"" 0  8  400  16000  38.89  40  12100  3900 
1 151  1  7  380  11400  30.25  30  7881.2  3518.8 
1 151  2  6  190  3800  20.74  20  1877.2  1922.8 
1 151  3  5  0  0  9.88  10  0  0 
1 151  
1 221  
1 221  
1 231  
1 231  
1 211  
1 211  
1 241  
1 241  
1 211  
1 211  
1 211  42 
1 211  
1 211  
1 211  [""current_slot"" 0  4  400  16000  40.12  40  14816  1184 
1 211  1  3  380  11400  37.04  30  10932.6  467.39999999999964 
1 211  2  1  190  1900  28.77  10  4081.2  -2181.2 
1 211  3  2  0  0  21.48  20  0  0 
1 211  
1 151  
1 151  
1 161  
1 161  
1 171  
1 171  
1 181  
1 181  
1 151  
1 151  
1 151  45 
1 151  
1 151  
1 151  [""current_slot"" 0  8  400  16000  38.89  40  12100  3900 
1 151  1  7  380  11400  30.25  30  7881.2  3518.8 
1 151  2  6  190  3800  20.74  20  1877.2  1922.8 
1 151  3  5  0  0  9.88  10  0  0 
1 151  
1 171  
1 171  
1 171  ""7""  ""30.74"" 
1 241  
1 241  
1 231  
1 231  
1 221  
1 221  
1 211  
1 211  
1 171  
1 171  
1 171  ""7""  ""35.93"" 
1 211  
1 211  
1 211  43 
1 211  
1 211  
1 211  [""current_slot"" 0  4  400  16000  40.12  40  14816  1184 
1 211  1  3  380  11400  37.04  30  10932.6  467.39999999999964 
1 211  2  1  190  1900  28.77  10  4081.2  -2181.2 
1 211  3  2  0  0  21.48  20  0  0 
1 211  
1 171  
1 171  
1 171  ""7""  ""39.14"" 
1 171  
1 171  
1 171  ""7""  ""42.10"" 
1 151  
1 151  
1 161  
1 161  
1 181  
1 181  
1 171  
1 171  
1 151  
1 151  
1 151  46 
1 151  
1 151  
1 151  [""current_slot"" 0  8  400  16000  38.89  40  12100  3900 
1 151  1  7  380  11400  42.1  30  7881.2  3518.8 
1 151  2  6  190  3800  20.74  20  1877.2  1922.8 
1 151  3  5  0  0  9.88  10  0  0 
1 151  
1 171  
1 171  
1 171  ""7""  ""44.07"" 
1 171  
1 171  
1 171  ""7""  ""44.32"" 
1 221  
1 221  
1 231  
1 231  
1 241  
1 241  
1 211  
1 211  
1 211  
1 211  
1 211  44 
1 211  
1 211  
1 211  [""current_slot"" 0  4  400  16000  40.12  40  14816  1184 
1 211  1  3  380  11400  37.04  30  10932.6  467.39999999999964 
1 211  2  1  190  1900  28.77  10  4081.2  -2181.2 
1 211  3  2  0  0  21.48  20  0  0 
1 211  
1 151  
1 151  
1 161  
1 161  
1 181  
1 181  
1 171  
1 171  
1 151  
1 151  
1 151  47 
1 151  
1 151  
1 151  [""current_slot"" 0  7  400  12000  44.32  30  15556  -3556 
1 151  1  8  380  15200  38.89  40  7881.2  7318.8 
1 151  2  6  190  3800  20.74  20  1877.2  1922.8 
1 151  3  5  0  0  9.88  10  0  0 
1 151  
1 241  
1 241  
1 231  
1 231  
1 221  
1 221  
1 211  
1 211  
1 211  
1 211  
1 211  45 
1 211  
1 211  
1 211  [""current_slot"" 0  4  400  16000  40.12  40  14816  1184 
1 211  1  3  380  11400  37.04  30  10932.6  467.39999999999964 
1 211  2  1  190  1900  28.77  10  4081.2  -2181.2 
1 211  3  2  0  0  21.48  20  0  0 
1 211  
1 151  
1 151  
1 161  
1 161  
1 171  
1 171  
1 181  
1 181  
1 151  
1 151  
1 151  48 
1 151  
1 151  
1 151  [""current_slot"" 0  7  400  12000  44.32  30  15556  -3556 
1 151  1  8  380  15200  38.89  40  7881.2  7318.8 
1 151  2  6  190  3800  20.74  20  1877.2  1922.8 
1 151  3  5  0  0  9.88  10  0  0 
1 151  
1 231  
1 231  
1 221  
1 221  
1 241  
1 241  
1 211  
1 211  
1 211  
1 211  
1 211  46 
1 211  
1 211  
1 211  [""current_slot"" 0  4  400  16000  40.12  40  14816  1184 
1 211  1  3  380  11400  37.04  30  10932.6  467.39999999999964 
1 211  2  1  190  1900  28.77  10  4081.2  -2181.2 
1 211  3  2  0  0  21.48  20  0  0 
1 211  
1 151  
1 151  
1 161  
1 161  
1 181  
1 181  
1 171  
1 171  
1 151  
1 151  
1 151  49 
1 151  
1 151  
1 151  [""current_slot"" 0  7  400  12000  44.32  30  15556  -3556 
1 151  1  8  380  15200  38.89  40  7881.2  7318.8 
1 151  2  6  190  3800  20.74  20  1877.2  1922.8 
1 151  3  5  0  0  9.88  10  0  0 
1 151  
1 231  
1 231  
1 221  
1 221  
1 211  
1 211  
1 241  
1 241  
1 211  
1 211  
1 211  47 
1 211  
1 211  
1 211  [""current_slot"" 0  4  400  16000  40.12  40  14816  1184 
1 211  1  3  380  11400  37.04  30  10932.6  467.39999999999964 
1 211  2  1  190  1900  28.77  10  4081.2  -2181.2 
1 211  3  2  0  0  21.48  20  0  0 
1 211  
1 151  
1 151  
1 161  
1 161  
1 171  
1 171  
1 181  
1 181  
1 151  
1 151  
1 151  50 
1 151  
1 151  
1 151  [""current_slot"" 0  7  400  12000  44.32  30  15556  -3556 
1 151  1  8  380  15200  38.89  40  7881.2  7318.8 
1 151  2  6  190  3800  20.74  20  1877.2  1922.8 
1 151  3  5  0  0  9.88  10  0  0 
1 151  
1 241  
1 241  
1 231  
1 231  
1 221  
1 221  
1 211  
1 211  
1 211  
1 211  
1 211  48 
1 211  
1 211  
1 211  [""current_slot"" 0  4  400  16000  40.12  40  14816  1184 
1 211  1  3  380  11400  37.04  30  10932.6  467.39999999999964 
1 211  2  1  190  1900  28.77  10  4081.2  -2181.2 
1 211  3  2  0  0  21.48  20  0  0 
1 211  
1 181  
1 181  
1 161  
1 161  
1 151  
1 151  
1 171  
1 171  
1 151  
1 151  
1 151  51 
1 151  
1 151  
1 151  [""current_slot"" 0  7  400  12000  44.32  30  15556  -3556 
1 151  1  8  380  15200  38.89  40  7881.2  7318.8 
1 151  2  6  190  3800  20.74  20  1877.2  1922.8 
1 151  3  5  0  0  9.88  10  0  0 
1 151  
1 241  
1 241  
1 221  
1 221  
1 231  
1 231  
1 211  
1 211  
1 211  
1 211  
1 211  49 
1 211  
1 211  
1 211  [""current_slot"" 0  4  400  16000  40.12  40  14816  1184 
1 211  1  3  380  11400  37.04  30  10932.6  467.39999999999964 
1 211  2  1  190  1900  28.77  10  4081.2  -2181.2 
1 211  3  2  0  0  21.48  20  0  0 
1 211  
1 181  
1 181  
1 161  
1 161  
1 151  
1 151  
1 171  
1 171  
1 151  
1 151  
1 151  52 
1 151  
1 151  
1 151  [""current_slot"" 0  7  400  12000  44.32  30  15556  -3556 
1 151  1  8  380  15200  38.89  40  7881.2  7318.8 
1 151  2  6  190  3800  20.74  20  1877.2  1922.8 
1 151  3  5  0  0  9.88  10  0  0 
1 151  
1 171  
1 171  
1 171  ""7""  ""43.58"" 
1 171  
1 171  
1 171  ""7""  ""34.20"" 
1 171  
1 171  
1 171  ""7""  ""33.70"" 
1 171  
1 171  
1 171  ""7""  ""32.47"" 
1 171  
1 171  
1 171  ""7""  ""31.98"" 
1 241  
1 241  
1 221  
1 221  
1 231  
1 231  
1 211  
1 211  
1 211  
1 211  
1 211  50 
1 211  
1 211  
1 211  [""current_slot"" 0  4  400  16000  40.12  40  14816  1184 
1 211  1  3  380  11400  37.04  30  10932.6  467.39999999999964 
1 211  2  1  190  1900  28.77  10  4081.2  -2181.2 
1 211  3  2  0  0  21.48  20  0  0 
1 211  
1 171  
1 171  
1 171  ""7""  ""30.74"" 
1 181  
1 181  
1 151  
1 151  
1 161  
1 161  
1 171  
1 171  
1 171  ""7""  ""30.49"" 
1 171  
1 171  
1 151  
1 151  
1 151  53 
1 151  
1 151  
1 151  [""current_slot"" 0  7  400  12000  30.49  30  15556  -3556 
1 151  1  8  380  15200  38.89  40  7881.2  7318.8 
1 151  2  6  190  3800  20.74  20  1877.2  1922.8 
1 151  3  5  0  0  9.88  10  0  0 
1 151  
1 241  
1 241  
1 231  
1 231  
1 221  
1 221  
1 211  
1 211  
1 211  
1 211  
1 211  51 
1 211  
1 211  
1 211  [""current_slot"" 0  4  400  16000  40.12  40  14816  1184 
1 211  1  3  380  11400  37.04  30  10932.6  467.39999999999964 
1 211  2  1  190  1900  28.77  10  4081.2  -2181.2 
1 211  3  2  0  0  21.48  20  0  0 
1 211  
1 181  
1 181  
1 161  
1 161  
1 151  
1 151  
1 171  
1 171  
1 151  
1 151  
1 151  54 
1 151  
1 151  
1 151  [""current_slot"" 0  8  400  16000  38.89  40  12196  3804 
1 151  1  7  380  11400  30.49  30  7881.2  3518.8 
1 151  2  6  190  3800  20.74  20  1877.2  1922.8 
1 151  3  5  0  0  9.88  10  0  0 
1 151  
1 241  
1 241  
1 221  
1 221  
1 231  
1 231  
1 211  
1 211  
1 211  
1 211  
1 211  52 
1 211  
1 211  
1 211  [""current_slot"" 0  4  400  16000  40.12  40  14816  1184 
1 211  1  3  380  11400  37.04  30  10932.6  467.39999999999964 
1 211  2  1  190  1900  28.77  10  4081.2  -2181.2 
1 211  3  2  0  0  21.48  20  0  0 
1 211  
1 181  
1 181  
1 171  
1 171  
1 151  
1 151  
1 161  
1 161  
1 151  
1 151  
1 151  55 
1 151  
1 151  
1 151  [""current_slot"" 0  8  400  16000  38.89  40  12196  3804 
1 151  1  7  380  11400  30.49  30  7881.2  3518.8 
1 151  2  6  190  3800  20.74  20  1877.2  1922.8 
1 151  3  5  0  0  9.88  10  0  0 
1 151  
1 241  
1 241  
1 231  
1 231  
1 221  
1 221  
1 211  
1 211  
1 211  
1 211  
1 211  53 
1 211  
1 211  
1 211  [""current_slot"" 0  4  400  16000  40.12  40  14816  1184 
1 211  1  3  380  11400  37.04  30  10932.6  467.39999999999964 
1 211  2  1  190  1900  28.77  10  4081.2  -2181.2 
1 211  3  2  0  0  21.48  20  0  0 
1 211  
1 181  
1 181  
1 171  
1 171  
1 161  
1 161  
1 151  
1 151  
1 151  
1 151  
1 151  56 
1 151  
1 151  
1 151  [""current_slot"" 0  8  400  16000  38.89  40  12196  3804 
1 151  1  7  380  11400  30.49  30  7881.2  3518.8 
1 151  2  6  190  3800  20.74  20  1877.2  1922.8 
1 151  3  5  0  0  9.88  10  0  0 
1 151  
1 241  
1 241  
1 231  
1 231  
1 221  
1 221  
1 211  
1 211  
1 211  
1 211  
1 211  54 
1 211  
1 211  
1 211  [""current_slot"" 0  4  400  16000  40.12  40  14816  1184 
1 211  1  3  380  11400  37.04  30  10932.6  467.39999999999964 
1 211  2  1  190  1900  28.77  10  4081.2  -2181.2 
1 211  3  2  0  0  21.48  20  0  0 
1 211  
1 181  
1 181  
1 151  
1 151  
1 161  
1 161  
1 171  
1 171  
1 151  
1 151  
1 151  57 
1 151  
1 151  
1 151  [""current_slot"" 0  8  400  16000  38.89  40  12196  3804 
1 151  1  7  380  11400  30.49  30  7881.2  3518.8 
1 151  2  6  190  3800  20.74  20  1877.2  1922.8 
1 151  3  5  0  0  9.88  10  0  0 
1 151  
1 241  
1 241  
1 231  
1 231  
1 221  
1 221  
1 211  
1 211  
1 211  
1 211  
1 211  55 
1 211  
1 211  
1 211  [""current_slot"" 0  4  400  16000  40.12  40  14816  1184 
1 211  1  3  380  11400  37.04  30  10932.6  467.39999999999964 
1 211  2  1  190  1900  28.77  10  4081.2  -2181.2 
1 211  3  2  0  0  21.48  20  0  0 
1 211  
1 181  
1 181  
1 171  
1 171  
1 161  
1 161  
1 151  
1 151  
1 151  
1 151  
1 151  58 
1 151  
1 151  
1 151  [""current_slot"" 0  8  400  16000  38.89  40  12196  3804 
1 151  1  7  380  11400  30.49  30  7881.2  3518.8 
1 151  2  6  190  3800  20.74  20  1877.2  1922.8 
1 151  3  5  0  0  9.88  10  0  0 
1 151  
1 241  
1 241  
1 231  
1 231  
1 221  
1 221  
1 211  
1 211  
1 211  
1 211  
1 211  56 
1 211  
1 211  
1 211  [""current_slot"" 0  4  400  16000  40.12  40  14816  1184 
1 211  1  3  380  11400  37.04  30  10932.6  467.39999999999964 
1 211  2  1  190  1900  28.77  10  4081.2  -2181.2 
1 211  3  2  0  0  21.48  20  0  0 
1 211  
1 171  
1 171  
1 181  
1 181  
1 151  
1 151  
1 161  
1 161  
1 151  
1 151  
1 151  59 
1 151  
1 151  
1 151  [""current_slot"" 0  8  400  16000  38.89  40  12196  3804 
1 151  1  7  380  11400  30.49  30  7881.2  3518.8 
1 151  2  6  190  3800  20.74  20  1877.2  1922.8 
1 151  3  5  0  0  9.88  10  0  0 
1 151  
1 241  
1 241  
1 221  
1 221  
1 231  
1 231  
1 211  
1 211  
1 211  
1 211  
1 211  57 
1 211  
1 211  
1 211  [""current_slot"" 0  4  400  16000  40.12  40  14816  1184 
1 211  1  3  380  11400  37.04  30  10932.6  467.39999999999964 
1 211  2  1  190  1900  28.77  10  4081.2  -2181.2 
1 211  3  2  0  0  21.48  20  0  0 
1 211  
1 161  
1 161  
1 151  
1 151  
1 181  
1 181  
1 171  
1 171  
1 151  
1 151  
1 151  60 
1 151  
1 151  
1 151  [""current_slot"" 0  8  400  16000  38.89  40  12196  3804 
1 151  1  7  380  11400  30.49  30  7881.2  3518.8 
1 151  2  6  190  3800  20.74  20  1877.2  1922.8 
1 151  3  5  0  0  9.88  10  0  0 
1 151  
1 231  
1 231  
1 241  
1 241  
1 221  
1 221  
1 211  
1 211  
1 211  
1 211  
1 211  58 
1 211  
1 211  
1 211  [""current_slot"" 0  4  400  16000  40.12  40  14816  1184 
1 211  1  3  380  11400  37.04  30  10932.6  467.39999999999964 
1 211  2  1  190  1900  28.77  10  4081.2  -2181.2 
1 211  3  2  0  0  21.48  20  0  0 
1 211  
1 161  
1 161  
1 151  
1 151  
1 181  
1 181  
1 171  
1 171  
1 151  
1 151  
1 151  61 
1 151  
1 151  
1 151  [""current_slot"" 0  8  400  16000  38.89  40  12196  3804 
1 151  1  7  380  11400  30.49  30  7881.2  3518.8 
1 151  2  6  190  3800  20.74  20  1877.2  1922.8 
1 151  3  5  0  0  9.88  10  0  0 
1 151  
1 231  
1 231  
1 221  
1 221  
1 241  
1 241  
1 211  
1 211  
1 211  
1 211  
1 211  59 
1 211  
1 211  
1 211  [""current_slot"" 0  4  400  16000  40.12  40  14816  1184 
1 211  1  3  380  11400  37.04  30  10932.6  467.39999999999964 
1 211  2  1  190  1900  28.77  10  4081.2  -2181.2 
1 211  3  2  0  0  21.48  20  0  0 
1 211  
1 161  
1 161  
1 151  
1 151  
1 181  
1 181  
1 171  
1 171  
1 151  
1 151  
1 151  62 
1 151  
1 151  
1 151  [""current_slot"" 0  8  400  16000  38.89  40  12196  3804 
1 151  1  7  380  11400  30.49  30  7881.2  3518.8 
1 151  2  6  190  3800  20.74  20  1877.2  1922.8 
1 151  3  5  0  0  9.88  10  0  0 
1 151  
1 231  
1 231  
1 241  
1 241  
1 221  
1 221  
1 211  
1 211  
1 211  
1 211  
1 211  60 
1 211  
1 211  
1 211  [""current_slot"" 0  4  400  16000  40.12  40  14816  1184 
1 211  1  3  380  11400  37.04  30  10932.6  467.39999999999964 
1 211  2  1  190  1900  28.77  10  4081.2  -2181.2 
1 211  3  2  0  0  21.48  20  0  0 
1 211  
1 161  
1 161  
1 151  
1 151  
1 171  
1 171  
1 181  
1 181  
1 151  
1 151  
1 151  63 
1 151  
1 151  
1 151  [""current_slot"" 0  8  400  16000  38.89  40  12196  3804 
1 151  1  7  380  11400  30.49  30  7881.2  3518.8 
1 151  2  6  190  3800  20.74  20  1877.2  1922.8 
1 151  3  5  0  0  9.88  10  0  0 
1 151  
1 231  
1 231  
1 241  
1 241  
1 221  
1 221  
1 211  
1 211  
1 211  
1 211  
1 211  61 
1 211  
1 211  
1 211  [""current_slot"" 0  4  400  16000  40.12  40  14816  1184 
1 211  1  3  380  11400  37.04  30  10932.6  467.39999999999964 
1 211  2  1  190  1900  28.77  10  4081.2  -2181.2 
1 211  3  2  0  0  21.48  20  0  0 
1 211  
1 161  
1 161  
1 151  
1 151  
1 181  
1 181  
1 171  
1 171  
1 151  
1 151  
1 151  64 
1 151  
1 151  
1 151  [""current_slot"" 0  8  400  16000  38.89  40  12196  3804 
1 151  1  7  380  11400  30.49  30  7881.2  3518.8 
1 151  2  6  190  3800  20.74  20  1877.2  1922.8 
1 151  3  5  0  0  9.88  10  0  0 
1 151  
1 231  
1 231  
1 221  
1 221  
1 211  
1 211  
1 241  
1 241  
1 211  
1 211  
1 211  62 
1 211  
1 211  
1 211  [""current_slot"" 0  4  400  16000  40.12  40  14816  1184 
1 211  1  3  380  11400  37.04  30  10932.6  467.39999999999964 
1 211  2  1  190  1900  28.77  10  4081.2  -2181.2 
1 211  3  2  0  0  21.48  20  0  0 
1 211  
1 161  
1 161  
1 171  
1 171  
1 151  
1 151  
1 181  
1 181  
1 151  
1 151  
1 151  65 
1 151  
1 151  
1 151  [""current_slot"" 0  8  400  16000  38.89  40  12196  3804 
1 151  1  7  380  11400  30.49  30  7881.2  3518.8 
1 151  2  6  190  3800  20.74  20  1877.2  1922.8 
1 151  3  5  0  0  9.88  10  0  0 
1 151  
1 241  
1 241  
1 231  
1 231  
1 221  
1 221  
1 211  
1 211  
1 211  
1 211  
1 211  63 
1 211  
1 211  
1 211  [""current_slot"" 0  4  400  16000  40.12  40  14816  1184 
1 211  1  3  380  11400  37.04  30  10932.6  467.39999999999964 
1 211  2  1  190  1900  28.77  10  4081.2  -2181.2 
1 211  3  2  0  0  21.48  20  0  0 
1 211  
1 161  
1 161  
1 181  
1 181  
1 151  
1 151  
1 171  
1 171  
1 151  
1 151  
1 151  66 
1 151  
1 151  
1 151  [""current_slot"" 0  8  400  16000  38.89  40  12196  3804 
1 151  1  7  380  11400  30.49  30  7881.2  3518.8 
1 151  2  6  190  3800  20.74  20  1877.2  1922.8 
1 151  3  5  0  0  9.88  10  0  0 
1 151  
1 231  
1 231  
1 241  
1 241  
1 221  
1 221  
1 211  
1 211  
1 211  
1 211  
1 211  64 
1 211  
1 211  
1 211  [""current_slot"" 0  4  400  16000  40.12  40  14816  1184 
1 211  1  3  380  11400  37.04  30  10932.6  467.39999999999964 
1 211  2  1  190  1900  28.77  10  4081.2  -2181.2 
1 211  3  2  0  0  21.48  20  0  0 
1 211  
1 161  
1 161  
1 171  
1 171  
1 151  
1 151  
1 181  
1 181  
1 151  
1 151  
1 151  67 
1 151  
1 151  
1 151  [""current_slot"" 0  8  400  16000  38.89  40  12196  3804 
1 151  1  7  380  11400  30.49  30  7881.2  3518.8 
1 151  2  6  190  3800  20.74  20  1877.2  1922.8 
1 151  3  5  0  0  9.88  10  0  0 
1 151  
1 241  
1 241  
1 231  
1 231  
1 221  
1 221  
1 211  
1 211  
1 211  
1 211  
1 211  65 
1 211  
1 211  
1 211  [""current_slot"" 0  4  400  16000  40.12  40  14816  1184 
1 211  1  3  380  11400  37.04  30  10932.6  467.39999999999964 
1 211  2  1  190  1900  28.77  10  4081.2  -2181.2 
1 211  3  2  0  0  21.48  20  0  0 
1 211  
1 161  
1 161  
1 151  
1 151  
1 171  
1 171  
1 181  
1 181  
1 151  
1 151  
1 151  68 
1 151  
1 151  
1 151  [""current_slot"" 0  8  400  16000  38.89  40  12196  3804 
1 151  1  7  380  11400  30.49  30  7881.2  3518.8 
1 151  2  6  190  3800  20.74  20  1877.2  1922.8 
1 151  3  5  0  0  9.88  10  0  0 
1 151  
1 231  
1 231  
1 221  
1 221  
1 241  
1 241  
1 211  
1 211  
1 211  
1 211  
1 211  66 
1 211  
1 211  
1 211  [""current_slot"" 0  4  400  16000  40.12  40  14816  1184 
1 211  1  3  380  11400  37.04  30  10932.6  467.39999999999964 
1 211  2  1  190  1900  28.77  10  4081.2  -2181.2 
1 211  3  2  0  0  21.48  20  0  0 
1 211  
1 161  
1 161  
1 151  
1 151  
1 171  
1 171  
1 181  
1 181  
1 151  
1 151  
1 151  69 
1 151  
1 151  
1 151  [""current_slot"" 0  8  400  16000  38.89  40  12196  3804 
1 151  1  7  380  11400  30.49  30  7881.2  3518.8 
1 151  2  6  190  3800  20.74  20  1877.2  1922.8 
1 151  3  5  0  0  9.88  10  0  0 
1 151  
1 231  
1 231  
1 221  
1 221  
1 241  
1 241  
1 211  
1 211  
1 211  
1 211  
1 211  67 
1 211  
1 211  
1 211  [""current_slot"" 0  4  400  16000  40.12  40  14816  1184 
1 211  1  3  380  11400  37.04  30  10932.6  467.39999999999964 
1 211  2  1  190  1900  28.77  10  4081.2  -2181.2 
1 211  3  2  0  0  21.48  20  0  0 
1 211  
1 161  
1 161  
1 151  
1 151  
1 181  
1 181  
1 171  
1 171  
1 151  
1 151  
1 151  70 
1 151  
1 151  
1 151  [""current_slot"" 0  8  400  16000  38.89  40  12196  3804 
1 151  1  7  380  11400  30.49  30  7881.2  3518.8 
1 151  2  6  190  3800  20.74  20  1877.2  1922.8 
1 151  3  5  0  0  9.88  10  0  0 
1 151  
1 231  
1 231  
1 241  
1 241  
1 221  
1 221  
1 211  
1 211  
1 211  
1 211  
1 211  68 
1 211  
1 211  
1 211  [""current_slot"" 0  4  400  16000  40.12  40  14816  1184 
1 211  1  3  380  11400  37.04  30  10932.6  467.39999999999964 
1 211  2  1  190  1900  28.77  10  4081.2  -2181.2 
1 211  3  2  0  0  21.48  20  0  0 
1 211  
1 151  
1 151  
1 161  
1 161  
1 171  
1 171  
1 181  
1 181  
1 151  
1 151  
1 151  71 
1 151  
1 151  
1 151  [""current_slot"" 0  8  400  16000  38.89  40  12196  3804 
1 151  1  7  380  11400  30.49  30  7881.2  3518.8 
1 151  2  6  190  3800  20.74  20  1877.2  1922.8 
1 151  3  5  0  0  9.88  10  0  0 
1 151  
1 231  
1 231  
1 221  
1 221  
1 241  
1 241  
1 211  
1 211  
1 211  
1 211  
1 211  69 
1 211  
1 211  
1 211  [""current_slot"" 0  4  400  16000  40.12  40  14816  1184 
1 211  1  3  380  11400  37.04  30  10932.6  467.39999999999964 
1 211  2  1  190  1900  28.77  10  4081.2  -2181.2 
1 211  3  2  0  0  21.48  20  0  0 
1 211  
1 161  
1 161  
1 151  
1 151  
1 181  
1 181  
1 171  
1 171  
1 151  
1 151  
1 151  72 
1 151  
1 151  
1 151  [""current_slot"" 0  8  400  16000  38.89  40  12196  3804 
1 151  1  7  380  11400  30.49  30  7881.2  3518.8 
1 151  2  6  190  3800  20.74  20  1877.2  1922.8 
1 151  3  5  0  0  9.88  10  0  0 
1 151  
1 231  
1 231  
1 221  
1 221  
1 241  
1 241  
1 211  
1 211  
1 211  
1 211  
1 211  70 
1 211  
1 211  
1 211  [""current_slot"" 0  4  400  16000  40.12  40  14816  1184 
1 211  1  3  380  11400  37.04  30  10932.6  467.39999999999964 
1 211  2  1  190  1900  28.77  10  4081.2  -2181.2 
1 211  3  2  0  0  21.48  20  0  0 
1 211  
1 161  
1 161  
1 151  
1 151  
1 171  
1 171  
1 181  
1 181  
1 151  
1 151  
1 151  73 
1 151  
1 151  
1 151  [""current_slot"" 0  8  400  16000  38.89  40  12196  3804 
1 151  1  7  380  11400  30.49  30  7881.2  3518.8 
1 151  2  6  190  3800  20.74  20  1877.2  1922.8 
1 151  3  5  0  0  9.88  10  0  0 
1 151  
1 231  
1 231  
1 221  
1 221  
1 241  
1 241  
1 211  
1 211  
1 211  
1 211  
1 211  71 
1 211  
1 211  
1 211  [""current_slot"" 0  4  400  16000  40.12  40  14816  1184 
1 211  1  3  380  11400  37.04  30  10932.6  467.39999999999964 
1 211  2  1  190  1900  28.77  10  4081.2  -2181.2 
1 211  3  2  0  0  21.48  20  0  0 
1 211  
1 161  
1 161  
1 151  
1 151  
1 171  
1 171  
1 181  
1 181  
1 151  
1 151  
1 151  74 
1 151  
1 151  
1 151  [""current_slot"" 0  8  400  16000  38.89  40  12196  3804 
1 151  1  7  380  11400  30.49  30  7881.2  3518.8 
1 151  2  6  190  3800  20.74  20  1877.2  1922.8 
1 151  3  5  0  0  9.88  10  0  0 
1 151  
1 231  
1 231  
1 221  
1 221  
1 241  
1 241  
1 211  
1 211  
1 211  
1 211  
1 211  72 
1 211  
1 211  
1 211  [""current_slot"" 0  4  400  16000  40.12  40  14816  1184 
1 211  1  3  380  11400  37.04  30  10932.6  467.39999999999964 
1 211  2  1  190  1900  28.77  10  4081.2  -2181.2 
1 211  3  2  0  0  21.48  20  0  0 
1 211  
1 151  
1 151  
1 161  
1 161  
1 181  
1 181  
1 171  
1 171  
1 151  
1 151  
1 151  75 
1 151  
1 151  
1 151  [""current_slot"" 0  8  400  16000  38.89  40  12196  3804 
1 151  1  7  380  11400  30.49  30  7881.2  3518.8 
1 151  2  6  190  3800  20.74  20  1877.2  1922.8 
1 151  3  5  0  0  9.88  10  0  0 
1 151  
1 221  
1 221  
1 241  
1 241  
1 211  
1 211  
1 161  
1 161  
1 151  
1 151  
1 171  
1 171  
1 181  
1 181  
1 151  
1 151  
1 151  76 
1 151  
1 151  
1 151  [""current_slot"" 0  8  400  16000  38.89  40  12196  3804 
1 151  1  7  380  11400  30.49  30  7881.2  3518.8 
1 151  2  6  190  3800  20.74  20  1877.2  1922.8 
1 151  3  5  0  0  9.88  10  0  0 
1 151  
1 231  
1 231  
1 211  
1 211  
1 211  73 
1 211  
1 211  
1 211  [""current_slot"" 0  4  400  16000  40.12  40  14816  1184 
1 211  1  3  380  11400  37.04  30  10932.6  467.39999999999964 
1 211  2  1  190  1900  28.77  10  4081.2  -2181.2 
1 211  3  2  0  0  21.48  20  0  0 
1 211  
1 161  
1 161  
1 151  
1 151  
1 181  
1 181  
1 171  
1 171  
1 151  
1 151  
1 151  77 
1 151  
1 151  
1 151  [""current_slot"" 0  8  400  16000  38.89  40  12196  3804 
1 151  1  7  380  11400  30.49  30  7881.2  3518.8 
1 151  2  6  190  3800  20.74  20  1877.2  1922.8 
1 151  3  5  0  0  9.88  10  0  0 
1 151  
1 241  
1 241  
1 221  
1 221  
1 211  
1 211  
1 231  
1 231  
1 211  
1 211  
1 211  74 
1 211  
1 211  
1 211  [""current_slot"" 0  4  400  16000  40.12  40  14816  1184 
1 211  1  3  380  11400  37.04  30  10932.6  467.39999999999964 
1 211  2  1  190  1900  28.77  10  4081.2  -2181.2 
1 211  3  2  0  0  21.48  20  0  0 
1 211  
1 151  
1 151  
1 161  
1 161  
1 181  
1 181  
1 171  
1 171  
1 151  
1 151  
1 151  78 
1 151  
1 151  
1 151  [""current_slot"" 0  8  400  16000  38.89  40  12196  3804 
1 151  1  7  380  11400  30.49  30  7881.2  3518.8 
1 151  2  6  190  3800  20.74  20  1877.2  1922.8 
1 151  3  5  0  0  9.88  10  0  0 
1 151  
1 241  
1 241  
1 221  
1 221  
1 231  
1 231  
1 211  
1 211  
1 211  
1 211  
1 211  75 
1 211  
1 211  
1 211  [""current_slot"" 0  4  400  16000  40.12  40  14816  1184 
1 211  1  3  380  11400  37.04  30  10932.6  467.39999999999964 
1 211  2  1  190  1900  28.77  10  4081.2  -2181.2 
1 211  3  2  0  0  21.48  20  0  0 
1 211  
1 151  
1 151  
1 161  
1 161  
1 181  
1 181  
1 171  
1 171  
1 151  
1 151  
1 151  79 
1 151  
1 151  
1 151  [""current_slot"" 0  8  400  16000  38.89  40  12196  3804 
1 151  1  7  380  11400  30.49  30  7881.2  3518.8 
1 151  2  6  190  3800  20.74  20  1877.2  1922.8 
1 151  3  5  0  0  9.88  10  0  0 
1 151  
1 231  
1 231  
1 241  
1 241  
1 221  
1 221  
1 211  
1 211  
1 211  
1 211  
1 211  76 
1 211  
1 211  
1 211  [""current_slot"" 0  4  400  16000  40.12  40  14816  1184 
1 211  1  3  380  11400  37.04  30  10932.6  467.39999999999964 
1 211  2  1  190  1900  28.77  10  4081.2  -2181.2 
1 211  3  2  0  0  21.48  20  0  0 
1 211  
1 161  
1 161  
1 151  
1 151  
1 181  
1 181  
1 171  
1 171  
1 151  
1 151  
1 151  80 
1 151  
1 151  
1 151  [""current_slot"" 0  8  400  16000  38.89  40  12196  3804 
1 151  1  7  380  11400  30.49  30  7881.2  3518.8 
1 151  2  6  190  3800  20.74  20  1877.2  1922.8 
1 151  3  5  0  0  9.88  10  0  0 
1 151  
1 221  
1 221  
1 241  
1 241  
1 231  
1 231  
1 211  
1 211  
1 211  
1 211  
1 211  77 
1 211  
1 211  
1 211  [""current_slot"" 0  4  400  16000  40.12  40  14816  1184 
1 211  1  3  380  11400  37.04  30  10932.6  467.39999999999964 
1 211  2  1  190  1900  28.77  10  4081.2  -2181.2 
1 211  3  2  0  0  21.48  20  0  0 
1 211  
1 151  
1 151  
1 161  
1 161  
1 171  
1 171  
1 181  
1 181  
1 151  
1 151  
1 151  81 
1 151  
1 151  
1 151  [""current_slot"" 0  8  400  16000  38.89  40  12196  3804 
1 151  1  7  380  11400  30.49  30  7881.2  3518.8 
1 151  2  6  190  3800  20.74  20  1877.2  1922.8 
1 151  3  5  0  0  9.88  10  0  0 
1 151  
1 231  
1 231  
1 241  
1 241  
1 221  
1 221  
1 211  
1 211  
1 211  
1 211  
1 211  78 
1 211  
1 211  
1 211  [""current_slot"" 0  4  400  16000  40.12  40  14816  1184 
1 211  1  3  380  11400  37.04  30  10932.6  467.39999999999964 
1 211  2  1  190  1900  28.77  10  4081.2  -2181.2 
1 211  3  2  0  0  21.48  20  0  0 
1 211  
1 161  
1 161  
1 151  
1 151  
1 171  
1 171  
1 181  
1 181  
1 151  
1 151  
1 151  82 
1 151  
1 151  
1 151  [""current_slot"" 0  8  400  16000  38.89  40  12196  3804 
1 151  1  7  380  11400  30.49  30  7881.2  3518.8 
1 151  2  6  190  3800  20.74  20  1877.2  1922.8 
1 151  3  5  0  0  9.88  10  0  0 
1 151  
1 231  
1 231  
1 221  
1 221  
1 241  
1 241  
1 211  
1 211  
1 211  
1 211  
1 211  79 
1 211  
1 211  
1 211  [""current_slot"" 0  4  400  16000  40.12  40  14816  1184 
1 211  1  3  380  11400  37.04  30  10932.6  467.39999999999964 
1 211  2  1  190  1900  28.77  10  4081.2  -2181.2 
1 211  3  2  0  0  21.48  20  0  0 
1 211  
1 151  
1 151  
1 161  
1 161  
1 171  
1 171  
1 181  
1 181  
1 151  
1 151  
1 151  83 
1 151  
1 151  
1 151  [""current_slot"" 0  8  400  16000  38.89  40  12196  3804 
1 151  1  7  380  11400  30.49  30  7881.2  3518.8 
1 151  2  6  190  3800  20.74  20  1877.2  1922.8 
1 151  3  5  0  0  9.88  10  0  0 
1 151  
1 231  
1 231  
1 241  
1 241  
1 221  
1 221  
1 211  
1 211  
1 211  
1 211  
1 211  80 
1 211  
1 211  
1 211  [""current_slot"" 0  4  400  16000  40.12  40  14816  1184 
1 211  1  3  380  11400  37.04  30  10932.6  467.39999999999964 
1 211  2  1  190  1900  28.77  10  4081.2  -2181.2 
1 211  3  2  0  0  21.48  20  0  0 
1 211  
1 161  
1 161  
1 151  
1 151  
1 181  
1 181  
1 171  
1 171  
1 151  
1 151  
1 151  84 
1 151  
1 151  
1 151  [""current_slot"" 0  8  400  16000  38.89  40  12196  3804 
1 151  1  7  380  11400  30.49  30  7881.2  3518.8 
1 151  2  6  190  3800  20.74  20  1877.2  1922.8 
1 151  3  5  0  0  9.88  10  0  0 
1 151  
1 231  
1 231  
1 221  
1 221  
1 241  
1 241  
1 211  
1 211  
1 211  
1 211  
1 211  81 
1 211  
1 211  
1 211  [""current_slot"" 0  4  400  16000  40.12  40  14816  1184 
1 211  1  3  380  11400  37.04  30  10932.6  467.39999999999964 
1 211  2  1  190  1900  28.77  10  4081.2  -2181.2 
1 211  3  2  0  0  21.48  20  0  0 
1 211  
1 161  
1 161  
1 151  
1 151  
1 181  
1 181  
1 171  
1 171  
1 151  
1 151  
1 151  85 
1 151  
1 151  
1 151  [""current_slot"" 0  8  400  16000  38.89  40  12196  3804 
1 151  1  7  380  11400  30.49  30  7881.2  3518.8 
1 151  2  6  190  3800  20.74  20  1877.2  1922.8 
1 151  3  5  0  0  9.88  10  0  0 
1 151  
1 231  
1 231  
1 241  
1 241  
1 221  
1 221  
1 211  
1 211  
1 211  
1 211  
1 211  82 
1 211  
1 211  
1 211  [""current_slot"" 0  4  400  16000  40.12  40  14816  1184 
1 211  1  3  380  11400  37.04  30  10932.6  467.39999999999964 
1 211  2  1  190  1900  28.77  10  4081.2  -2181.2 
1 211  3  2  0  0  21.48  20  0  0 
1 211  
1 151  
1 151  
1 161  
1 161  
1 171  
1 171  
1 181  
1 181  
1 151  
1 151  
1 151  86 
1 151  
1 151  
1 151  [""current_slot"" 0  8  400  16000  38.89  40  12196  3804 
1 151  1  7  380  11400  30.49  30  7881.2  3518.8 
1 151  2  6  190  3800  20.74  20  1877.2  1922.8 
1 151  3  5  0  0  9.88  10  0  0 
1 151  
1 231  
1 231  
1 221  
1 221  
1 241  
1 241  
1 211  
1 211  
1 211  
1 211  
1 211  83 
1 211  
1 211  
1 211  [""current_slot"" 0  4  400  16000  40.12  40  14816  1184 
1 211  1  3  380  11400  37.04  30  10932.6  467.39999999999964 
1 211  2  1  190  1900  28.77  10  4081.2  -2181.2 
1 211  3  2  0  0  21.48  20  0  0 
1 211  
1 151  
1 151  
1 161  
1 161  
1 171  
1 171  
1 181  
1 181  
1 151  
1 151  
1 151  87 
1 151  
1 151  
1 151  [""current_slot"" 0  8  400  16000  38.89  40  12196  3804 
1 151  1  7  380  11400  30.49  30  7881.2  3518.8 
1 151  2  6  190  3800  20.74  20  1877.2  1922.8 
1 151  3  5  0  0  9.88  10  0  0 
1 151  
1 231  
1 231  
1 221  
1 221  
1 241  
1 241  
1 211  
1 211  
1 211  
1 211  
1 211  84 
1 211  
1 211  
1 211  [""current_slot"" 0  4  400  16000  40.12  40  14816  1184 
1 211  1  3  380  11400  37.04  30  10932.6  467.39999999999964 
1 211  2  1  190  1900  28.77  10  4081.2  -2181.2 
1 211  3  2  0  0  21.48  20  0  0 
1 211  
1 151  
1 151  
1 161  
1 161  
1 171  
1 171  
1 181  
1 181  
1 151  
1 151  
1 151  88 
1 151  
1 151  
1 151  [""current_slot"" 0  8  400  16000  38.89  40  12196  3804 
1 151  1  7  380  11400  30.49  30  7881.2  3518.8 
1 151  2  6  190  3800  20.74  20  1877.2  1922.8 
1 151  3  5  0  0  9.88  10  0  0 
1 151  
1 241  
1 241  
1 221  
1 221  
1 231  
1 231  
1 211  
1 211  
1 211  
1 211  
1 211  85 
1 211  
1 211  
1 211  [""current_slot"" 0  4  400  16000  40.12  40  14816  1184 
1 211  1  3  380  11400  37.04  30  10932.6  467.39999999999964 
1 211  2  1  190  1900  28.77  10  4081.2  -2181.2 
1 211  3  2  0  0  21.48  20  0  0 
1 211  
1 151  
1 151  
1 161  
1 161  
1 181  
1 181  
1 171  
1 171  
1 151  
1 151  
1 151  89 
1 151  
1 151  
1 151  [""current_slot"" 0  8  400  16000  38.89  40  12196  3804 
1 151  1  7  380  11400  30.49  30  7881.2  3518.8 
1 151  2  6  190  3800  20.74  20  1877.2  1922.8 
1 151  3  5  0  0  9.88  10  0  0 
1 151  
1 231  
1 231  
1 221  
1 221  
1 241  
1 241  
1 211  
1 211  
1 211  
1 211  
1 211  86 
1 211  
1 211  
1 211  [""current_slot"" 0  4  400  16000  40.12  40  14816  1184 
1 211  1  3  380  11400  37.04  30  10932.6  467.39999999999964 
1 211  2  1  190  1900  28.77  10  4081.2  -2181.2 
1 211  3  2  0  0  21.48  20  0  0 
1 211  
1 151  
1 151  
1 161  
1 161  
1 181  
1 181  
1 171  
1 171  
1 151  
1 151  
1 151  90 
1 151  
1 151  
1 151  [""current_slot"" 0  8  400  16000  38.89  40  12196  3804 
1 151  1  7  380  11400  30.49  30  7881.2  3518.8 
1 151  2  6  190  3800  20.74  20  1877.2  1922.8 
1 151  3  5  0  0  9.88  10  0  0 
1 151  
1 231  
1 231  
1 221  
1 221  
1 241  
1 241  
1 211  
1 211  
1 211  
1 211  
1 211  87 
1 211  
1 211  
1 211  [""current_slot"" 0  4  400  16000  40.12  40  14816  1184 
1 211  1  3  380  11400  37.04  30  10932.6  467.39999999999964 
1 211  2  1  190  1900  28.77  10  4081.2  -2181.2 
1 211  3  2  0  0  21.48  20  0  0 
1 211  
1 151  
1 151  
1 161  
1 161  
1 181  
1 181  
1 171  
1 171  
1 151  
1 151  
1 151  91 
1 151  
1 151  
1 151  [""current_slot"" 0  8  400  16000  38.89  40  12196  3804 
1 151  1  7  380  11400  30.49  30  7881.2  3518.8 
1 151  2  6  190  3800  20.74  20  1877.2  1922.8 
1 151  3  5  0  0  9.88  10  0  0 
1 151  
1 231  
1 231  
1 221  
1 221  
1 241  
1 241  
1 211  
1 211  
1 211  
1 211  
1 211  88 
1 211  
1 211  
1 211  [""current_slot"" 0  4  400  16000  40.12  40  14816  1184 
1 211  1  3  380  11400  37.04  30  10932.6  467.39999999999964 
1 211  2  1  190  1900  28.77  10  4081.2  -2181.2 
1 211  3  2  0  0  21.48  20  0  0 
1 211  
1 151  
1 151  
1 161  
1 161  
1 171  
1 171  
1 181  
1 181  
1 151  
1 151  
1 151  92 
1 151  
1 151  
1 151  [""current_slot"" 0  8  400  16000  38.89  40  12196  3804 
1 151  1  7  380  11400  30.49  30  7881.2  3518.8 
1 151  2  6  190  3800  20.74  20  1877.2  1922.8 
1 151  3  5  0  0  9.88  10  0  0 
1 151  
1 231  
1 231  
1 221  
1 221  
1 241  
1 241  
1 211  
1 211  
1 211  
1 211  
1 211  89 
1 211  
1 211  
1 211  [""current_slot"" 0  4  400  16000  40.12  40  14816  1184 
1 211  1  3  380  11400  37.04  30  10932.6  467.39999999999964 
1 211  2  1  190  1900  28.77  10  4081.2  -2181.2 
1 211  3  2  0  0  21.48  20  0  0 
1 211  
1 151  
1 151  
1 161  
1 161  
1 181  
1 181  
1 171  
1 171  
1 151  
1 151  
1 151  93 
1 151  
1 151  
1 151  [""current_slot"" 0  8  400  16000  38.89  40  12196  3804 
1 151  1  7  380  11400  30.49  30  7881.2  3518.8 
1 151  2  6  190  3800  20.74  20  1877.2  1922.8 
1 151  3  5  0  0  9.88  10  0  0 
1 151  
1 231  
1 231  
1 221  
1 221  
1 211  
1 211  
1 241  
1 241  
1 211  
1 211  
1 211  90 
1 211  
1 211  
1 211  [""current_slot"" 0  4  400  16000  40.12  40  14816  1184 
1 211  1  3  380  11400  37.04  30  10932.6  467.39999999999964 
1 211  2  1  190  1900  28.77  10  4081.2  -2181.2 
1 211  3  2  0  0  21.48  20  0  0 
1 211  
1 151  
1 151  
1 161  
1 161  
1 171  
1 171  
1 181  
1 181  
1 151  
1 151  
1 151  94 
1 151  
1 151  
1 151  [""current_slot"" 0  8  400  16000  38.89  40  12196  3804 
1 151  1  7  380  11400  30.49  30  7881.2  3518.8 
1 151  2  6  190  3800  20.74  20  1877.2  1922.8 
1 151  3  5  0  0  9.88  10  0  0 
1 151  
1 231  
1 231  
1 221  
1 221  
1 241  
1 241  
1 211  
1 211  
1 211  
1 211  
1 211  91 
1 211  
1 211  
1 211  [""current_slot"" 0  4  400  16000  40.12  40  14816  1184 
1 211  1  3  380  11400  37.04  30  10932.6  467.39999999999964 
1 211  2  1  190  1900  28.77  10  4081.2  -2181.2 
1 211  3  2  0  0  21.48  20  0  0 
1 211  
1 151  
1 151  
1 161  
1 161  
1 171  
1 171  
1 181  
1 181  
1 151  
1 151  
1 151  95 
1 151  
1 151  
1 151  [""current_slot"" 0  8  400  16000  38.89  40  12196  3804 
1 151  1  7  380  11400  30.49  30  7881.2  3518.8 
1 151  2  6  190  3800  20.74  20  1877.2  1922.8 
1 151  3  5  0  0  9.88  10  0  0 
1 151  
1 241  
1 241  
1 221  
1 221  
1 231  
1 231  
1 211  
1 211  
1 211  
1 211  
1 211  92 
1 211  
1 211  
1 211  [""current_slot"" 0  4  400  16000  40.12  40  14816  1184 
1 211  1  3  380  11400  37.04  30  10932.6  467.39999999999964 
1 211  2  1  190  1900  28.77  10  4081.2  -2181.2 
1 211  3  2  0  0  21.48  20  0  0 
1 211  
1 151  
1 151  
1 161  
1 161  
1 171  
1 171  
1 181  
1 181  
1 151  
1 151  
1 151  96 
1 151  
1 151  
1 151  [""current_slot"" 0  8  400  16000  38.89  40  12196  3804 
1 151  1  7  380  11400  30.49  30  7881.2  3518.8 
1 151  2  6  190  3800  20.74  20  1877.2  1922.8 
1 151  3  5  0  0  9.88  10  0  0 
1 151  
1 241  
1 241  
1 231  
1 231  
1 221  
1 221  
1 211  
1 211  
1 211  
1 211  
1 211  93 
1 211  
1 211  
1 211  [""current_slot"" 0  4  400  16000  40.12  40  14816  1184 
1 211  1  3  380  11400  37.04  30  10932.6  467.39999999999964 
1 211  2  1  190  1900  28.77  10  4081.2  -2181.2 
1 211  3  2  0  0  21.48  20  0  0 
1 211  
1 151  
1 151  
1 161  
1 161  
1 171  
1 171  
1 181  
1 181  
1 151  
1 151  
1 151  97 
1 151  
1 151  
1 151  [""current_slot"" 0  8  400  16000  38.89  40  12196  3804 
1 151  1  7  380  11400  30.49  30  7881.2  3518.8 
1 151  2  6  190  3800  20.74  20  1877.2  1922.8 
1 151  3  5  0  0  9.88  10  0  0 
1 151  
1 241  
1 241  
1 221  
1 221  
1 231  
1 231  
1 211  
1 211  
1 211  
1 211  
1 211  94 
1 211  
1 211  
1 211  [""current_slot"" 0  4  400  16000  40.12  40  14816  1184 
1 211  1  3  380  11400  37.04  30  10932.6  467.39999999999964 
1 211  2  1  190  1900  28.77  10  4081.2  -2181.2 
1 211  3  2  0  0  21.48  20  0  0 
1 211  
1 151  
1 151  
1 161  
1 161  
1 181  
1 181  
1 171  
1 171  
1 151  
1 151  
1 151  98 
1 151  
1 151  
1 151  [""current_slot"" 0  8  400  16000  38.89  40  12196  3804 
1 151  1  7  380  11400  30.49  30  7881.2  3518.8 
1 151  2  6  190  3800  20.74  20  1877.2  1922.8 
1 151  3  5  0  0  9.88  10  0  0 
1 151  
1 231  
1 231  
1 221  
1 221  
1 241  
1 241  
1 211  
1 211  
1 211  
1 211  
1 211  95 
1 211  
1 211  
1 211  [""current_slot"" 0  4  400  16000  40.12  40  14816  1184 
1 211  1  3  380  11400  37.04  30  10932.6  467.39999999999964 
1 211  2  1  190  1900  28.77  10  4081.2  -2181.2 
1 211  3  2  0  0  21.48  20  0  0 
1 211  
1 151  
1 151  
1 161  
1 161  
1 181  
1 181  
1 171  
1 171  
1 151  
1 151  
1 151  99 
1 151  
1 151  
1 151  [""current_slot"" 0  8  400  16000  38.89  40  12196  3804 
1 151  1  7  380  11400  30.49  30  7881.2  3518.8 
1 151  2  6  190  3800  20.74  20  1877.2  1922.8 
1 151  3  5  0  0  9.88  10  0  0 
1 151  
1 241  
1 241  
1 231  
1 231  
1 221  
1 221  
1 211  
1 211  
1 211  
1 211  
1 211  96 
1 211  
1 211  
1 211  [""current_slot"" 0  4  400  16000  40.12  40  14816  1184 
1 211  1  3  380  11400  37.04  30  10932.6  467.39999999999964 
1 211  2  1  190  1900  28.77  10  4081.2  -2181.2 
1 211  3  2  0  0  21.48  20  0  0 
1 211  
1 171  
1 171  
1 161  
1 161  
1 181  
1 181  
1 151  
1 151  
1 151  
1 151  
1 151  100 
1 151  
1 151  
1 151  [""current_slot"" 0  8  400  16000  38.89  40  12196  3804 
1 151  1  7  380  11400  30.49  30  7881.2  3518.8 
1 151  2  6  190  3800  20.74  20  1877.2  1922.8 
1 151  3  5  0  0  9.88  10  0  0 
1 151  
1 241  
1 241  
1 221  
1 221  
1 231  
1 231  
1 211  
1 211  
1 211  
1 211  
1 211  97 
1 211  
1 211  
1 211  [""current_slot"" 0  4  400  16000  40.12  40  14816  1184 
1 211  1  3  380  11400  37.04  30  10932.6  467.39999999999964 
1 211  2  1  190  1900  28.77  10  4081.2  -2181.2 
1 211  3  2  0  0  21.48  20  0  0 
1 211  
1 171  
1 171  
1 151  
1 151  
1 161  
1 161  
1 181  
1 181  
1 151  
1 151  
1 151  101 
1 151  
1 151  
1 151  [""current_slot"" 0  8  400  16000  38.89  40  12196  3804 
1 151  1  7  380  11400  30.49  30  7881.2  3518.8 
1 151  2  6  190  3800  20.74  20  1877.2  1922.8 
1 151  3  5  0  0  9.88  10  0  0 
1 151  
1 241  
1 241  
1 221  
1 221  
1 231  
1 231  
1 211  
1 211  
1 211  
1 211  
1 211  98 
1 211  
1 211  
1 211  [""current_slot"" 0  4  400  16000  40.12  40  14816  1184 
1 211  1  3  380  11400  37.04  30  10932.6  467.39999999999964 
1 211  2  1  190  1900  28.77  10  4081.2  -2181.2 
1 211  3  2  0  0  21.48  20  0  0 
1 211  
1 151  
1 151  
1 161  
1 161  
1 171  
1 171  
1 181  
1 181  
1 151  
1 151  
1 151  102 
1 151  
1 151  
1 151  [""current_slot"" 0  8  400  16000  38.89  40  12196  3804 
1 151  1  7  380  11400  30.49  30  7881.2  3518.8 
1 151  2  6  190  3800  20.74  20  1877.2  1922.8 
1 151  3  5  0  0  9.88  10  0  0 
1 151  
1 241  
1 241  
1 221  
1 221  
1 231  
1 231  
1 211  
1 211  
1 211  
1 211  
1 211  99 
1 211  
1 211  
1 211  [""current_slot"" 0  4  400  16000  40.12  40  14816  1184 
1 211  1  3  380  11400  37.04  30  10932.6  467.39999999999964 
1 211  2  1  190  1900  28.77  10  4081.2  -2181.2 
1 211  3  2  0  0  21.48  20  0  0 
1 211  
1 161  
1 161  
1 171  
1 171  
1 151  
1 151  
1 181  
1 181  
1 151  
1 151  
1 151  103 
1 151  
1 151  
1 151  [""current_slot"" 0  8  400  16000  38.89  40  12196  3804 
1 151  1  7  380  11400  30.49  30  7881.2  3518.8 
1 151  2  6  190  3800  20.74  20  1877.2  1922.8 
1 151  3  5  0  0  9.88  10  0  0 
1 151  
1 241  
1 241  
1 231  
1 231  
1 221  
1 221  
1 211  
1 211  
1 211  
1 211  
1 211  100 
1 211  
1 211  
1 211  [""current_slot"" 0  4  400  16000  40.12  40  14816  1184 
1 211  1  3  380  11400  37.04  30  10932.6  467.39999999999964 
1 211  2  1  190  1900  28.77  10  4081.2  -2181.2 
1 211  3  2  0  0  21.48  20  0  0 
1 211  
1 161  
1 161  
1 151  
1 151  
1 171  
1 171  
1 181  
1 181  
1 151  
1 151  
1 151  104 
1 151  
1 151  
1 151  [""current_slot"" 0  8  400  16000  38.89  40  12196  3804 
1 151  1  7  380  11400  30.49  30  7881.2  3518.8 
1 151  2  6  190  3800  20.74  20  1877.2  1922.8 
1 151  3  5  0  0  9.88  10  0  0 
1 151  
1 221  
1 221  
1 241  
1 241  
1 231  
1 231  
1 211  
1 211  
1 211  
1 211  
1 211  101 
1 211  
1 211  
1 211  [""current_slot"" 0  4  400  16000  40.12  40  14816  1184 
1 211  1  3  380  11400  37.04  30  10932.6  467.39999999999964 
1 211  2  1  190  1900  28.77  10  4081.2  -2181.2 
1 211  3  2  0  0  21.48  20  0  0 
1 211  
1 161  
1 161  
1 151  
1 151  
1 181  
1 181  
1 171  
1 171  
1 151  
1 151  
1 151  105 
1 151  
1 151  
1 151  [""current_slot"" 0  8  400  16000  38.89  40  12196  3804 
1 151  1  7  380  11400  30.49  30  7881.2  3518.8 
1 151  2  6  190  3800  20.74  20  1877.2  1922.8 
1 151  3  5  0  0  9.88  10  0  0 
1 151  
1 221  
1 221  
1 241  
1 241  
1 231  
1 231  
1 211  
1 211  
1 211  
1 211  
1 211  102 
1 211  
1 211  
1 211  [""current_slot"" 0  4  400  16000  40.12  40  14816  1184 
1 211  1  3  380  11400  37.04  30  10932.6  467.39999999999964 
1 211  2  1  190  1900  28.77  10  4081.2  -2181.2 
1 211  3  2  0  0  21.48  20  0  0 
1 211  
1 161  
1 161  
1 151  
1 151  
1 181  
1 181  
1 171  
1 171  
1 151  
1 151  
1 151  106 
1 151  
1 151  
1 151  [""current_slot"" 0  8  400  16000  38.89  40  12196  3804 
1 151  1  7  380  11400  30.49  30  7881.2  3518.8 
1 151  2  6  190  3800  20.74  20  1877.2  1922.8 
1 151  3  5  0  0  9.88  10  0  0 
1 151  
1 221  
1 221  
1 211  
1 211  
1 231  
1 231  
1 241  
1 241  
1 211  
1 211  
1 211  103 
1 211  
1 211  
1 211  [""current_slot"" 0  4  400  16000  40.12  40  14816  1184 
1 211  1  3  380  11400  37.04  30  10932.6  467.39999999999964 
1 211  2  1  190  1900  28.77  10  4081.2  -2181.2 
1 211  3  2  0  0  21.48  20  0  0 
1 211  
1 151  
1 151  
1 161  
1 161  
1 181  
1 181  
1 171  
1 171  
1 151  
1 151  
1 151  107 
1 151  
1 151  
1 151  [""current_slot"" 0  8  400  16000  38.89  40  12196  3804 
1 151  1  7  380  11400  30.49  30  7881.2  3518.8 
1 151  2  6  190  3800  20.74  20  1877.2  1922.8 
1 151  3  5  0  0  9.88  10  0  0 
1 151  
1 221  
1 221  
1 241  
1 241  
1 211  
1 211  
1 231  
1 231  
1 211  
1 211  
1 211  104 
1 211  
1 211  
1 211  [""current_slot"" 0  4  400  16000  40.12  40  14816  1184 
1 211  1  3  380  11400  37.04  30  10932.6  467.39999999999964 
1 211  2  1  190  1900  28.77  10  4081.2  -2181.2 
1 211  3  2  0  0  21.48  20  0  0 
1 211  
1 161  
1 161  
1 151  
1 151  
1 171  
1 171  
1 181  
1 181  
1 151  
1 151  
1 151  108 
1 151  
1 151  
1 151  [""current_slot"" 0  8  400  16000  38.89  40  12196  3804 
1 151  1  7  380  11400  30.49  30  7881.2  3518.8 
1 151  2  6  190  3800  20.74  20  1877.2  1922.8 
1 151  3  5  0  0  9.88  10  0  0 
1 151  
1 241  
1 241  
1 231  
1 231  
1 221  
1 221  
1 211  
1 211  
1 211  
1 211  
1 211  105 
1 211  
1 211  
1 211  [""current_slot"" 0  4  400  16000  40.12  40  14816  1184 
1 211  1  3  380  11400  37.04  30  10932.6  467.39999999999964 
1 211  2  1  190  1900  28.77  10  4081.2  -2181.2 
1 211  3  2  0  0  21.48  20  0  0 
1 211  
1 151  
1 151  
1 161  
1 161  
1 171  
1 171  
1 181  
1 181  
1 151  
1 151  
1 151  109 
1 151  
1 151  
1 151  [""current_slot"" 0  8  400  16000  38.89  40  12196  3804 
1 151  1  7  380  11400  30.49  30  7881.2  3518.8 
1 151  2  6  190  3800  20.74  20  1877.2  1922.8 
1 151  3  5  0  0  9.88  10  0  0 
1 151  
1 241  
1 241  
1 231  
1 231  
1 211  
1 211  
1 221  
1 221  
1 211  
1 211  
1 211  106 
1 211  
1 211  
1 211  [""current_slot"" 0  4  400  16000  40.12  40  14816  1184 
1 211  1  3  380  11400  37.04  30  10932.6  467.39999999999964 
1 211  2  1  190  1900  28.77  10  4081.2  -2181.2 
1 211  3  2  0  0  21.48  20  0  0 
1 211  
1 151  
1 151  
1 161  
1 161  
1 181  
1 181  
1 171  
1 171  
1 151  
1 151  
1 151  110 
1 151  
1 151  
1 151  [""current_slot"" 0  8  400  16000  38.89  40  12196  3804 
1 151  1  7  380  11400  30.49  30  7881.2  3518.8 
1 151  2  6  190  3800  20.74  20  1877.2  1922.8 
1 151  3  5  0  0  9.88  10  0  0 
1 151  
1 241  
1 241  
1 221  
1 221  
1 231  
1 231  
1 211  
1 211  
1 211  
1 211  
1 211  107 
1 211  
1 211  
1 211  [""current_slot"" 0  4  400  16000  40.12  40  14816  1184 
1 211  1  3  380  11400  37.04  30  10932.6  467.39999999999964 
1 211  2  1  190  1900  28.77  10  4081.2  -2181.2 
1 211  3  2  0  0  21.48  20  0  0 
1 211  
1 161  
1 161  
1 151  
1 151  
1 171  
1 171  
1 181  
1 181  
1 151  
1 151  
1 151  111 
1 151  
1 151  
1 151  [""current_slot"" 0  8  400  16000  38.89  40  12196  3804 
1 151  1  7  380  11400  30.49  30  7881.2  3518.8 
1 151  2  6  190  3800  20.74  20  1877.2  1922.8 
1 151  3  5  0  0  9.88  10  0  0 
1 151  
1 241  
1 241  
1 221  
1 221  
1 231  
1 231  
1 211  
1 211  
1 211  
1 211  
1 211  108 
1 211  
1 211  
1 211  [""current_slot"" 0  4  400  16000  40.12  40  14816  1184 
1 211  1  3  380  11400  37.04  30  10932.6  467.39999999999964 
1 211  2  1  190  1900  28.77  10  4081.2  -2181.2 
1 211  3  2  0  0  21.48  20  0  0 
1 211  
1 151  
1 151  
1 161  
1 161  
1 181  
1 181  
1 171  
1 171  
1 151  
1 151  
1 151  112 
1 151  
1 151  
1 151  [""current_slot"" 0  8  400  16000  38.89  40  12196  3804 
1 151  1  7  380  11400  30.49  30  7881.2  3518.8 
1 151  2  6  190  3800  20.74  20  1877.2  1922.8 
1 151  3  5  0  0  9.88  10  0  0 
1 151  
1 221  
1 221  
1 231  
1 231  
1 211  
1 211  
1 241  
1 241  
1 211  
1 211  
1 211  109 
1 211  
1 211  
1 211  [""current_slot"" 0  4  400  16000  40.12  40  14816  1184 
1 211  1  3  380  11400  37.04  30  10932.6  467.39999999999964 
1 211  2  1  190  1900  28.77  10  4081.2  -2181.2 
1 211  3  2  0  0  21.48  20  0  0 
1 211  
1 151  
1 151  
1 161  
1 161  
1 171  
1 171  
1 181  
1 181  
1 151  
1 151  
1 151  113 
1 151  
1 151  
1 151  [""current_slot"" 0  8  400  16000  38.89  40  12196  3804 
1 151  1  7  380  11400  30.49  30  7881.2  3518.8 
1 151  2  6  190  3800  20.74  20  1877.2  1922.8 
1 151  3  5  0  0  9.88  10  0  0 
1 151  
1 221  
1 221  
1 211  
1 211  
1 231  
1 231  
1 241  
1 241  
1 211  
1 211  
1 211  110 
1 211  
1 211  
1 211  [""current_slot"" 0  4  400  16000  40.12  40  14816  1184 
1 211  1  3  380  11400  37.04  30  10932.6  467.39999999999964 
1 211  2  1  190  1900  28.77  10  4081.2  -2181.2 
1 211  3  2  0  0  21.48  20  0  0 
1 211  
1 151  
1 151  
1 161  
1 161  
1 171  
1 171  
1 181  
1 181  
1 151  
1 151  
1 151  114 
1 151  
1 151  
1 151  [""current_slot"" 0  8  400  16000  38.89  40  12196  3804 
1 151  1  7  380  11400  30.49  30  7881.2  3518.8 
1 151  2  6  190  3800  20.74  20  1877.2  1922.8 
1 151  3  5  0  0  9.88  10  0  0 
1 151  
1 231  
1 231  
1 241  
1 241  
1 221  
1 221  
1 211  
1 211  
1 211  
1 211  
1 211  111 
1 211  
1 211  
1 211  [""current_slot"" 0  4  400  16000  40.12  40  14816  1184 
1 211  1  3  380  11400  37.04  30  10932.6  467.39999999999964 
1 211  2  1  190  1900  28.77  10  4081.2  -2181.2 
1 211  3  2  0  0  21.48  20  0  0 
1 211  
1 151  
1 151  
1 161  
1 161  
1 181  
1 181  
1 171  
1 171  
1 151  
1 151  
1 151  115 
1 151  
1 151  
1 151  [""current_slot"" 0  8  400  16000  38.89  40  12196  3804 
1 151  1  7  380  11400  30.49  30  7881.2  3518.8 
1 151  2  6  190  3800  20.74  20  1877.2  1922.8 
1 151  3  5  0  0  9.88  10  0  0 
1 151  
1 221  
1 221  
1 231  
1 231  
1 211  
1 211  
1 241  
1 241  
1 211  
1 211  
1 211  112 
1 211  
1 211  
1 211  [""current_slot"" 0  4  400  16000  40.12  40  14816  1184 
1 211  1  3  380  11400  37.04  30  10932.6  467.39999999999964 
1 211  2  1  190  1900  28.77  10  4081.2  -2181.2 
1 211  3  2  0  0  21.48  20  0  0 
1 211  
1 151  
1 151  
1 181  
1 181  
1 171  
1 171  
1 161  
1 161  
1 151  
1 151  
1 151  116 
1 151  
1 151  
1 151  [""current_slot"" 0  8  400  16000  38.89  40  12196  3804 
1 151  1  7  380  11400  30.49  30  7881.2  3518.8 
1 151  2  6  190  3800  20.74  20  1877.2  1922.8 
1 151  3  5  0  0  9.88  10  0  0 
1 151  
1 221  
1 221  
1 231  
1 231  
1 241  
1 241  
1 211  
1 211  
1 211  
1 211  
1 211  113 
1 211  
1 211  
1 211  [""current_slot"" 0  4  400  16000  40.12  40  14816  1184 
1 211  1  3  380  11400  37.04  30  10932.6  467.39999999999964 
1 211  2  1  190  1900  28.77  10  4081.2  -2181.2 
1 211  3  2  0  0  21.48  20  0  0 
1 211  
1 161  
1 161  
1 151  
1 151  
1 181  
1 181  
1 171  
1 171  
1 151  
1 151  
1 151  117 
1 151  
1 151  
1 151  [""current_slot"" 0  8  400  16000  38.89  40  12196  3804 
1 151  1  7  380  11400  30.49  30  7881.2  3518.8 
1 151  2  6  190  3800  20.74  20  1877.2  1922.8 
1 151  3  5  0  0  9.88  10  0  0 
1 151  
1 221  
1 221  
1 241  
1 241  
1 211  
1 211  
1 231  
1 231  
1 211  
1 211  
1 211  114 
1 211  
1 211  
1 211  [""current_slot"" 0  4  400  16000  40.12  40  14816  1184 
1 211  1  3  380  11400  37.04  30  10932.6  467.39999999999964 
1 211  2  1  190  1900  28.77  10  4081.2  -2181.2 
1 211  3  2  0  0  21.48  20  0  0 
1 211  
1 161  
1 161  
1 151  
1 151  
1 181  
1 181  
1 171  
1 171  
1 151  
1 151  
1 151  118 
1 151  
1 151  
1 151  [""current_slot"" 0  8  400  16000  38.89  40  12196  3804 
1 151  1  7  380  11400  30.49  30  7881.2  3518.8 
1 151  2  6  190  3800  20.74  20  1877.2  1922.8 
1 151  3  5  0  0  9.88  10  0  0 
1 151  
1 241  
1 241  
1 211  
1 211  
1 231  
1 231  
1 161  
1 161  
1 151  
1 151  
1 171  
1 171  
1 181  
1 181  
1 151  
1 151  
1 151  119 
1 151  
1 151  
1 151  [""current_slot"" 0  8  400  16000  38.89  40  12196  3804 
1 151  1  7  380  11400  30.49  30  7881.2  3518.8 
1 151  2  6  190  3800  20.74  20  1877.2  1922.8 
1 151  3  5  0  0  9.88  10  0  0 
1 151  
1 221  
1 221  
1 211  
1 211  
1 211  115 
1 211  
1 211  
1 211  [""current_slot"" 0  4  400  16000  40.12  40  14816  1184 
1 211  1  3  380  11400  37.04  30  10932.6  467.39999999999964 
1 211  2  1  190  1900  28.77  10  4081.2  -2181.2 
1 211  3  2  0  0  21.48  20  0  0 
1 211  
1 151  
1 151  
1 161  
1 161  
1 181  
1 181  
1 171  
1 171  
1 151  
1 151  
1 151  120 
1 151  
1 151  
1 151  [""current_slot"" 0  8  400  16000  38.89  40  12196  3804 
1 151  1  7  380  11400  30.49  30  7881.2  3518.8 
1 151  2  6  190  3800  20.74  20  1877.2  1922.8 
1 151  3  5  0  0  9.88  10  0  0 
1 151  
1 241  
1 241  
1 211  
1 211  
1 231  
1 231  
1 221  
1 221  
1 211  
1 211  
1 211  116 
1 211  
1 211  
1 211  [""current_slot"" 0  4  400  16000  40.12  40  14816  1184 
1 211  1  3  380  11400  37.04  30  10932.6  467.39999999999964 
1 211  2  1  190  1900  28.77  10  4081.2  -2181.2 
1 211  3  2  0  0  21.48  20  0  0 
1 211  
1 161  
1 161  
1 151  
1 151  
1 181  
1 181  
1 171  
1 171  
1 151  
1 151  
1 151  121 
1 151  
1 151  
1 151  [""current_slot"" 0  8  400  16000  38.89  40  12196  3804 
1 151  1  7  380  11400  30.49  30  7881.2  3518.8 
1 151  2  6  190  3800  20.74  20  1877.2  1922.8 
1 151  3  5  0  0  9.88  10  0  0 
1 151  
1 241  
1 241  
1 231  
1 231  
1 211  
1 211  
1 221  
1 221  
1 211  
1 211  
1 211  117 
1 211  
1 211  
1 211  [""current_slot"" 0  4  400  16000  40.12  40  14816  1184 
1 211  1  3  380  11400  37.04  30  10932.6  467.39999999999964 
1 211  2  1  190  1900  28.77  10  4081.2  -2181.2 
1 211  3  2  0  0  21.48  20  0  0 
1 211  
1 151  
1 151  
1 161  
1 161  
1 181  
1 181  
1 171  
1 171  
1 151  
1 151  
1 151  122 
1 151  
1 151  
1 151  [""current_slot"" 0  8  400  16000  38.89  40  12196  3804 
1 151  1  7  380  11400  30.49  30  7881.2  3518.8 
1 151  2  6  190  3800  20.74  20  1877.2  1922.8 
1 151  3  5  0  0  9.88  10  0  0 
1 151  
1 241  
1 241  
1 231  
1 231  
1 211  
1 211  
1 221  
1 221  
1 211  
1 211  
1 211  118 
1 211  
1 211  
1 211  [""current_slot"" 0  4  400  16000  40.12  40  14816  1184 
1 211  1  3  380  11400  37.04  30  10932.6  467.39999999999964 
1 211  2  1  190  1900  28.77  10  4081.2  -2181.2 
1 211  3  2  0  0  21.48  20  0  0 
1 211  
1 151  
1 151  
1 161  
1 161  
1 171  
1 171  
1 181  
1 181  
1 151  
1 151  
1 151  123 
1 151  
1 151  
1 151  [""current_slot"" 0  8  400  16000  38.89  40  12196  3804 
1 151  1  7  380  11400  30.49  30  7881.2  3518.8 
1 151  2  6  190  3800  20.74  20  1877.2  1922.8 
1 151  3  5  0  0  9.88  10  0  0 
1 151  
1 241  
1 241  
1 231  
1 231  
1 221  
1 221  
1 211  
1 211  
1 211  
1 211  
1 211  119 
1 211  
1 211  
1 211  [""current_slot"" 0  4  400  16000  40.12  40  14816  1184 
1 211  1  3  380  11400  37.04  30  10932.6  467.39999999999964 
1 211  2  1  190  1900  28.77  10  4081.2  -2181.2 
1 211  3  2  0  0  21.48  20  0  0 
1 211  
1 151  
1 151  
1 161  
1 161  
1 181  
1 181  
1 171  
1 171  
1 151  
1 151  
1 151  124 
1 151  
1 151  
1 151  [""current_slot"" 0  8  400  16000  38.89  40  12196  3804 
1 151  1  7  380  11400  30.49  30  7881.2  3518.8 
1 151  2  6  190  3800  20.74  20  1877.2  1922.8 
1 151  3  5  0  0  9.88  10  0  0 
1 151  
1 241  
1 241  
1 231  
1 231  
1 221  
1 221  
1 211  
1 211  
1 211  
1 211  
1 211  120 
1 211  
1 211  
1 211  [""current_slot"" 0  4  400  16000  40.12  40  14816  1184 
1 211  1  3  380  11400  37.04  30  10932.6  467.39999999999964 
1 211  2  1  190  1900  28.77  10  4081.2  -2181.2 
1 211  3  2  0  0  21.48  20  0  0 
1 211  
1 151  
1 151  
1 161  
1 161  
1 171  
1 171  
1 181  
1 181  
1 151  
1 151  
1 151  125 
1 151  
1 151  
1 151  [""current_slot"" 0  8  400  16000  38.89  40  12196  3804 
1 151  1  7  380  11400  30.49  30  7881.2  3518.8 
1 151  2  6  190  3800  20.74  20  1877.2  1922.8 
1 151  3  5  0  0  9.88  10  0  0 
1 151  
1 241  
1 241  
1 231  
1 231  
1 221  
1 221  
1 211  
1 211  
1 211  
1 211  
1 211  121 
1 211  
1 211  
1 211  [""current_slot"" 0  4  400  16000  40.12  40  14816  1184 
1 211  1  3  380  11400  37.04  30  10932.6  467.39999999999964 
1 211  2  1  190  1900  28.77  10  4081.2  -2181.2 
1 211  3  2  0  0  21.48  20  0  0 
1 211  
1 161  
1 161  
1 151  
1 151  
1 181  
1 181  
1 171  
1 171  
1 151  
1 151  
1 151  126 
1 151  
1 151  
1 151  [""current_slot"" 0  8  400  16000  38.89  40  12196  3804 
1 151  1  7  380  11400  30.49  30  7881.2  3518.8 
1 151  2  6  190  3800  20.74  20  1877.2  1922.8 
1 151  3  5  0  0  9.88  10  0  0 
1 151  
1 231  
1 231  
1 241  
1 241  
1 221  
1 221  
1 211  
1 211  
1 211  
1 211  
1 211  122 
1 211  
1 211  
1 211  [""current_slot"" 0  4  400  16000  40.12  40  14816  1184 
1 211  1  3  380  11400  37.04  30  10932.6  467.39999999999964 
1 211  2  1  190  1900  28.77  10  4081.2  -2181.2 
1 211  3  2  0  0  21.48  20  0  0 
1 211  
1 151  
1 151  
1 161  
1 161  
1 181  
1 181  
1 171  
1 171  
1 151  
1 151  
1 151  127 
1 151  
1 151  
1 151  [""current_slot"" 0  8  400  16000  38.89  40  12196  3804 
1 151  1  7  380  11400  30.49  30  7881.2  3518.8 
1 151  2  6  190  3800  20.74  20  1877.2  1922.8 
1 151  3  5  0  0  9.88  10  0  0 
1 151  
1 231  
1 231  
1 221  
1 221  
1 211  
1 211  
1 241  
1 241  
1 211  
1 211  
1 211  123 
1 211  
1 211  
1 211  [""current_slot"" 0  4  400  16000  40.12  40  14816  1184 
1 211  1  3  380  11400  37.04  30  10932.6  467.39999999999964 
1 211  2  1  190  1900  28.77  10  4081.2  -2181.2 
1 211  3  2  0  0  21.48  20  0  0 
1 211  
1 161  
1 161  
1 151  
1 151  
1 181  
1 181  
1 171  
1 171  
1 151  
1 151  
1 151  128 
1 151  
1 151  
1 151  [""current_slot"" 0  8  400  16000  38.89  40  12196  3804 
1 151  1  7  380  11400  30.49  30  7881.2  3518.8 
1 151  2  6  190  3800  20.74  20  1877.2  1922.8 
1 151  3  5  0  0  9.88  10  0  0 
1 151  
1 241  
1 241  
1 221  
1 221  
1 211  
1 211  
1 231  
1 231  
1 211  
1 211  
1 211  124 
1 211  
1 211  
1 211  [""current_slot"" 0  4  400  16000  40.12  40  14816  1184 
1 211  1  3  380  11400  37.04  30  10932.6  467.39999999999964 
1 211  2  1  190  1900  28.77  10  4081.2  -2181.2 
1 211  3  2  0  0  21.48  20  0  0 
1 211  
1 151  
1 151  
1 161  
1 161  
1 171  
1 171  
1 181  
1 181  
1 151  
1 151  
1 151  129 
1 151  
1 151  
1 151  [""current_slot"" 0  8  400  16000  38.89  40  12196  3804 
1 151  1  7  380  11400  30.49  30  7881.2  3518.8 
1 151  2  6  190  3800  20.74  20  1877.2  1922.8 
1 151  3  5  0  0  9.88  10  0  0 
1 151  
1 241  
1 241  
1 211  
1 211  
1 231  
1 231  
1 221  
1 221  
1 211  
1 211  
1 211  125 
1 211  
1 211  
1 211  [""current_slot"" 0  4  400  16000  40.12  40  14816  1184 
1 211  1  3  380  11400  37.04  30  10932.6  467.39999999999964 
1 211  2  1  190  1900  28.77  10  4081.2  -2181.2 
1 211  3  2  0  0  21.48  20  0  0 
1 211  
1 161  
1 161  
1 151  
1 151  
1 181  
1 181  
1 171  
1 171  
1 151  
1 151  
1 151  130 
1 151  
1 151  
1 151  [""current_slot"" 0  8  400  16000  38.89  40  12196  3804 
1 151  1  7  380  11400  30.49  30  7881.2  3518.8 
1 151  2  6  190  3800  20.74  20  1877.2  1922.8 
1 151  3  5  0  0  9.88  10  0  0 
1 151  
1 211  
1 211  
1 221  
1 221  
1 231  
1 231  
1 241  
1 241  
1 211  
1 211  
1 211  126 
1 211  
1 211  
1 211  [""current_slot"" 0  4  400  16000  40.12  40  14816  1184 
1 211  1  3  380  11400  37.04  30  10932.6  467.39999999999964 
1 211  2  1  190  1900  28.77  10  4081.2  -2181.2 
1 211  3  2  0  0  21.48  20  0  0 
1 211  
1 151  
1 151  
1 181  
1 181  
1 161  
1 161  
1 171  
1 171  
1 151  
1 151  
1 151  131 
1 151  
1 151  
1 151  [""current_slot"" 0  8  400  16000  38.89  40  12196  3804 
1 151  1  7  380  11400  30.49  30  7881.2  3518.8 
1 151  2  6  190  3800  20.74  20  1877.2  1922.8 
1 151  3  5  0  0  9.88  10  0  0 
1 151  
1 241  
1 241  
1 231  
1 231  
1 211  
1 211  
1 221  
1 221  
1 211  
1 211  
1 211  127 
1 211  
1 211  
1 211  [""current_slot"" 0  4  400  16000  40.12  40  14816  1184 
1 211  1  3  380  11400  37.04  30  10932.6  467.39999999999964 
1 211  2  1  190  1900  28.77  10  4081.2  -2181.2 
1 211  3  2  0  0  21.48  20  0  0 
1 211  
1 161  
1 161  
1 151  
1 151  
1 181  
1 181  
1 171  
1 171  
1 151  
1 151  
1 151  132 
1 151  
1 151  
1 151  [""current_slot"" 0  8  400  16000  38.89  40  12196  3804 
1 151  1  7  380  11400  30.49  30  7881.2  3518.8 
1 151  2  6  190  3800  20.74  20  1877.2  1922.8 
1 151  3  5  0  0  9.88  10  0  0 
1 151  
1 241  
1 241  
1 221  
1 221  
1 231  
1 231  
1 211  
1 211  
1 211  
1 211  
1 211  128 
1 211  
1 211  
1 211  [""current_slot"" 0  4  400  16000  40.12  40  14816  1184 
1 211  1  3  380  11400  37.04  30  10932.6  467.39999999999964 
1 211  2  1  190  1900  28.77  10  4081.2  -2181.2 
1 211  3  2  0  0  21.48  20  0  0 
1 211  
1 161  
1 161  
1 151  
1 151  
1 171  
1 171  
1 181  
1 181  
1 151  
1 151  
1 151  133 
1 151  
1 151  
1 151  [""current_slot"" 0  8  400  16000  38.89  40  12196  3804 
1 151  1  7  380  11400  30.49  30  7881.2  3518.8 
1 151  2  6  190  3800  20.74  20  1877.2  1922.8 
1 151  3  5  0  0  9.88  10  0  0 
1 151  
1 241  
1 241  
1 231  
1 231  
1 221  
1 221  
1 211  
1 211  
1 211  
1 211  
1 211  129 
1 211  
1 211  
1 211  [""current_slot"" 0  4  400  16000  40.12  40  14816  1184 
1 211  1  3  380  11400  37.04  30  10932.6  467.39999999999964 
1 211  2  1  190  1900  28.77  10  4081.2  -2181.2 
1 211  3  2  0  0  21.48  20  0  0 
1 211  
1 161  
1 161  
1 151  
1 151  
1 171  
1 171  
1 181  
1 181  
1 151  
1 151  
1 151  134 
1 151  
1 151  
1 151  [""current_slot"" 0  8  400  16000  38.89  40  12196  3804 
1 151  1  7  380  11400  30.49  30  7881.2  3518.8 
1 151  2  6  190  3800  20.74  20  1877.2  1922.8 
1 151  3  5  0  0  9.88  10  0  0 
1 151  
1 241  
1 241  
1 221  
1 221  
1 231  
1 231  
1 211  
1 211  
1 211  
1 211  
1 211  130 
1 211  
1 211  
1 211  [""current_slot"" 0  4  400  16000  40.12  40  14816  1184 
1 211  1  3  380  11400  37.04  30  10932.6  467.39999999999964 
1 211  2  1  190  1900  28.77  10  4081.2  -2181.2 
1 211  3  2  0  0  21.48  20  0  0 
1 211  
1 161  
1 161  
1 181  
1 181  
1 151  
1 151  
1 171  
1 171  
1 151  
1 151  
1 151  135 
1 151  
1 151  
1 151  [""current_slot"" 0  8  400  16000  38.89  40  12196  3804 
1 151  1  7  380  11400  30.49  30  7881.2  3518.8 
1 151  2  6  190  3800  20.74  20  1877.2  1922.8 
1 151  3  5  0  0  9.88  10  0  0 
1 151  
1 241  
1 241  
1 221  
1 221  
1 211  
1 211  
1 231  
1 231  
1 211  
1 211  
1 211  131 
1 211  
1 211  
1 211  [""current_slot"" 0  4  400  16000  40.12  40  14816  1184 
1 211  1  3  380  11400  37.04  30  10932.6  467.39999999999964 
1 211  2  1  190  1900  28.77  10  4081.2  -2181.2 
1 211  3  2  0  0  21.48  20  0  0 
1 211  
1 151  
1 151  
1 161  
1 161  
1 181  
1 181  
1 171  
1 171  
1 151  
1 151  
1 151  136 
1 151  
1 151  
1 151  [""current_slot"" 0  8  400  16000  38.89  40  12196  3804 
1 151  1  7  380  11400  30.49  30  7881.2  3518.8 
1 151  2  6  190  3800  20.74  20  1877.2  1922.8 
1 151  3  5  0  0  9.88  10  0  0 
1 151  
1 241  
1 241  
1 211  
1 211  
1 231  
1 231  
1 221  
1 221  
1 211  
1 211  
1 211  132 
1 211  
1 211  
1 211  [""current_slot"" 0  4  400  16000  40.12  40  14816  1184 
1 211  1  3  380  11400  37.04  30  10932.6  467.39999999999964 
1 211  2  1  190  1900  28.77  10  4081.2  -2181.2 
1 211  3  2  0  0  21.48  20  0  0 
1 211  
1 151  
1 151  
1 161  
1 161  
1 171  
1 171  
1 181  
1 181  
1 151  
1 151  
1 151  137 
1 151  
1 151  
1 151  [""current_slot"" 0  8  400  16000  38.89  40  12196  3804 
1 151  1  7  380  11400  30.49  30  7881.2  3518.8 
1 151  2  6  190  3800  20.74  20  1877.2  1922.8 
1 151  3  5  0  0  9.88  10  0  0 
1 151  
1 241  
1 241  
1 211  
1 211  
1 231  
1 231  
1 221  
1 221  
1 211  
1 211  
1 211  133 
1 211  
1 211  
1 211  [""current_slot"" 0  4  400  16000  40.12  40  14816  1184 
1 211  1  3  380  11400  37.04  30  10932.6  467.39999999999964 
1 211  2  1  190  1900  28.77  10  4081.2  -2181.2 
1 211  3  2  0  0  21.48  20  0  0 
1 211  
1 161  
1 161  
1 151  
1 151  
1 181  
1 181  
1 171  
1 171  
1 151  
1 151  
1 151  138 
1 151  
1 151  
1 151  [""current_slot"" 0  8  400  16000  38.89  40  12196  3804 
1 151  1  7  380  11400  30.49  30  7881.2  3518.8 
1 151  2  6  190  3800  20.74  20  1877.2  1922.8 
1 151  3  5  0  0  9.88  10  0  0 
1 151  
1 241  
1 241  
1 231  
1 231  
1 221  
1 221  
1 211  
1 211  
1 211  
1 211  
1 211  134 
1 211  
1 211  
1 211  [""current_slot"" 0  4  400  16000  40.12  40  14816  1184 
1 211  1  3  380  11400  37.04  30  10932.6  467.39999999999964 
1 211  2  1  190  1900  28.77  10  4081.2  -2181.2 
1 211  3  2  0  0  21.48  20  0  0 
1 211  
1 151  
1 151  
1 161  
1 161  
1 181  
1 181  
1 171  
1 171  
1 151  
1 151  
1 151  139 
1 151  
1 151  
1 151  [""current_slot"" 0  8  400  16000  38.89  40  12196  3804 
1 151  1  7  380  11400  30.49  30  7881.2  3518.8 
1 151  2  6  190  3800  20.74  20  1877.2  1922.8 
1 151  3  5  0  0  9.88  10  0  0 
1 151  
1 241  
1 241  
1 231  
1 231  
1 221  
1 221  
1 211  
1 211  
1 211  
1 211  
1 211  135 
1 211  
1 211  
1 211  [""current_slot"" 0  4  400  16000  40.12  40  14816  1184 
1 211  1  3  380  11400  37.04  30  10932.6  467.39999999999964 
1 211  2  1  190  1900  28.77  10  4081.2  -2181.2 
1 211  3  2  0  0  21.48  20  0  0 
1 211  
1 151  
1 151  
1 161  
1 161  
1 171  
1 171  
1 181  
1 181  
1 151  
1 151  
1 151  140 
1 151  
1 151  
1 151  [""current_slot"" 0  8  400  16000  38.89  40  12196  3804 
1 151  1  7  380  11400  30.49  30  7881.2  3518.8 
1 151  2  6  190  3800  20.74  20  1877.2  1922.8 
1 151  3  5  0  0  9.88  10  0  0 
1 151  
1 241  
1 241  
1 231  
1 231  
1 221  
1 221  
1 211  
1 211  
1 211  
1 211  
1 211  136 
1 211  
1 211  
1 211  [""current_slot"" 0  4  400  16000  40.12  40  14816  1184 
1 211  1  3  380  11400  37.04  30  10932.6  467.39999999999964 
1 211  2  1  190  1900  28.77  10  4081.2  -2181.2 
1 211  3  2  0  0  21.48  20  0  0 
1 211  
1 161  
1 161  
1 151  
1 151  
1 181  
1 181  
1 171  
1 171  
1 151  
1 151  
1 151  141 
1 151  
1 151  
1 151  [""current_slot"" 0  8  400  16000  38.89  40  12196  3804 
1 151  1  7  380  11400  30.49  30  7881.2  3518.8 
1 151  2  6  190  3800  20.74  20  1877.2  1922.8 
1 151  3  5  0  0  9.88  10  0  0 
1 151  
1 241  
1 241  
1 231  
1 231  
1 221  
1 221  
1 211  
1 211  
1 211  
1 211  
1 211  137 
1 211  
1 211  
1 211  [""current_slot"" 0  4  400  16000  40.12  40  14816  1184 
1 211  1  3  380  11400  37.04  30  10932.6  467.39999999999964 
1 211  2  1  190  1900  28.77  10  4081.2  -2181.2 
1 211  3  2  0  0  21.48  20  0  0 
1 211  
1 151  
1 151  
1 161  
1 161  
1 181  
1 181  
1 171  
1 171  
1 151  
1 151  
1 151  142 
1 151  
1 151  
1 151  [""current_slot"" 0  8  400  16000  38.89  40  12196  3804 
1 151  1  7  380  11400  30.49  30  7881.2  3518.8 
1 151  2  6  190  3800  20.74  20  1877.2  1922.8 
1 151  3  5  0  0  9.88  10  0  0 
1 151  
1 241  
1 241  
1 231  
1 231  
1 211  
1 211  
1 221  
1 221  
1 211  
1 211  
1 211  138 
1 211  
1 211  
1 211  [""current_slot"" 0  4  400  16000  40.12  40  14816  1184 
1 211  1  3  380  11400  37.04  30  10932.6  467.39999999999964 
1 211  2  1  190  1900  28.77  10  4081.2  -2181.2 
1 211  3  2  0  0  21.48  20  0  0 
1 211  
1 151  
1 151  
1 161  
1 161  
1 181  
1 181  
1 171  
1 171  
1 151  
1 151  
1 151  143 
1 151  
1 151  
1 151  [""current_slot"" 0  8  400  16000  38.89  40  12196  3804 
1 151  1  7  380  11400  30.49  30  7881.2  3518.8 
1 151  2  6  190  3800  20.74  20  1877.2  1922.8 
1 151  3  5  0  0  9.88  10  0  0 
1 151  
1 151  
1 151  
1 161  
1 161  
1 181  
1 181  
1 171  
1 171  
1 151  
1 151  
1 151  144 
1 151  
1 151  
1 151  [""current_slot"" 0  8  400  16000  38.89  40  12196  3804 
1 151  1  7  380  11400  30.49  30  7881.2  3518.8 
1 151  2  6  190  3800  20.74  20  1877.2  1922.8 
1 151  3  5  0  0  9.88  10  0  0 
1 151  
1 231  
1 231  
1 211  
1 211  
1 241  
1 241  
1 221  
1 221  
1 211  
1 211  
1 211  139 
1 211  
1 211  
1 211  [""current_slot"" 0  4  400  16000  40.12  40  14816  1184 
1 211  1  3  380  11400  37.04  30  10932.6  467.39999999999964 
1 211  2  1  190  1900  28.77  10  4081.2  -2181.2 
1 211  3  2  0  0  21.48  20  0  0 
1 211  
1 151  
1 151  
1 161  
1 161  
1 181  
1 181  
1 171  
1 171  
1 151  
1 151  
1 151  145 
1 151  
1 151  
1 151  [""current_slot"" 0  8  400  16000  38.89  40  12196  3804 
1 151  1  7  380  11400  30.49  30  7881.2  3518.8 
1 151  2  6  190  3800  20.74  20  1877.2  1922.8 
1 151  3  5  0  0  9.88  10  0  0 
1 151  
1 241  
1 241  
1 211  
1 211  
1 231  
1 231  
1 221  
1 221  
1 211  
1 211  
1 211  140 
1 211  
1 211  
1 211  [""current_slot"" 0  4  400  16000  40.12  40  14816  1184 
1 211  1  3  380  11400  37.04  30  10932.6  467.39999999999964 
1 211  2  1  190  1900  28.77  10  4081.2  -2181.2 
1 211  3  2  0  0  21.48  20  0  0 
1 211  
1 161  
1 161  
1 151  
1 151  
1 171  
1 171  
1 181  
1 181  
1 151  
1 151  
1 151  146 
1 151  
1 151  
1 151  [""current_slot"" 0  8  400  16000  38.89  40  12196  3804 
1 151  1  7  380  11400  30.49  30  7881.2  3518.8 
1 151  2  6  190  3800  20.74  20  1877.2  1922.8 
1 151  3  5  0  0  9.88  10  0  0 
1 151  
1 241  
1 241  
1 231  
1 231  
1 221  
1 221  
1 211  
1 211  
1 211  
1 211  
1 211  141 
1 211  
1 211  
1 211  [""current_slot"" 0  4  400  16000  40.12  40  14816  1184 
1 211  1  3  380  11400  37.04  30  10932.6  467.39999999999964 
1 211  2  1  190  1900  28.77  10  4081.2  -2181.2 
1 211  3  2  0  0  21.48  20  0  0 
1 211  
1 171  
1 171  
1 171  ""7""  ""30.25"" 
1 171  
1 171  
1 171  ""7""  ""28.52"" 
1 171  
1 171  
1 171  ""7""  ""21.60"" 
1 171  
1 171  
1 171  ""7""  ""19.14"" 
1 171  
1 171  
1 171  ""7""  ""17.41"" 
1 161  
1 161  
1 151  
1 151  
1 181  
1 181  
1 171  
1 171  
1 151  
1 151  
1 151  147 
1 151  
1 151  
1 151  [""current_slot"" 0  8  400  16000  38.89  40  12196  3804 
1 151  1  7  380  11400  17.41  30  7881.2  3518.8 
1 151  2  6  190  3800  20.74  20  1877.2  1922.8 
1 151  3  5  0  0  9.88  10  0  0 
1 151  
1 241  
1 241  
1 231  
1 231  
1 211  
1 211  
1 221  
1 221  
1 211  
1 211  
1 211  142 
1 211  
1 211  
1 211  [""current_slot"" 0  4  400  16000  40.12  40  14816  1184 
1 211  1  3  380  11400  37.04  30  10932.6  467.39999999999964 
1 211  2  1  190  1900  28.77  10  4081.2  -2181.2 
1 211  3  2  0  0  21.48  20  0  0 
1 211  
1 151  
1 151  
1 161  
1 161  
1 181  
1 181  
1 171  
1 171  
1 151  
1 151  
1 151  148 
1 151  
1 151  
1 151  [""current_slot"" 0  8  400  16000  38.89  40  8296  7704 
1 151  1  6  380  7600  20.74  20  6615.8  984.1999999999998 
1 151  2  7  190  5700  17.41  30  1877.2  3822.8 
1 151  3  5  0  0  9.88  10  0  0 
1 151  
1 241  
1 241  
1 211  
1 211  
1 221  
1 221  
1 231  
1 231  
1 211  
1 211  
1 211  143 
1 211  
1 211  
1 211  [""current_slot"" 0  4  400  16000  40.12  40  14816  1184 
