Message,Period,Time,Slot,Subject,Group,CTR,Revenue,Bid,VFC,Cost,Payoff
sync_net,1,18:09:20,-1,5,1,190,1900,0,10,0,1900
sync_net,1,18:09:20,-1,6,1,380,7600,0,20,0,7600
sync_net,1,18:09:20,-1,7,1,400,12000,0,30,0,12000
sync_net,1,18:09:20,-1,8,1,1,40,0,40,0,40
""
sync_net,1,18:09:21,-1,5,1,190,1900,0,10,0,1900
sync_net,1,18:09:21,-1,6,1,380,7600,0,20,0,7600
sync_net,1,18:09:21,-1,7,1,400,12000,0,30,0,12000
sync_net,1,18:09:21,-1,8,1,1,40,0,40,0,40
""
sync_net,1,18:09:22,-1,5,1,190,1900,0,10,0,1900
sync_net,1,18:09:22,-1,6,1,380,7600,0,20,0,7600
sync_net,1,18:09:22,-1,7,1,400,12000,0,30,0,12000
sync_net,1,18:09:22,-1,8,1,1,40,0,40,0,40
""
sync_net,1,18:09:23,-1,1,2,190,1900,0,10,0,1900
sync_net,1,18:09:23,-1,2,2,380,7600,0,20,0,7600
sync_net,1,18:09:23,-1,3,2,400,12000,0,30,0,12000
sync_net,1,18:09:23,-1,4,2,1,40,0,40,0,40
""
sync_net,1,18:09:23,-1,5,1,190,1900,0,10,0,1900
sync_net,1,18:09:23,-1,6,1,380,7600,0,20,0,7600
sync_net,1,18:09:23,-1,7,1,400,12000,0,30,0,12000
sync_net,1,18:09:23,-1,8,1,1,40,0,40,0,40
""
sync_net,1,18:09:23,-1,1,2,190,1900,0,10,0,1900
sync_net,1,18:09:23,-1,2,2,380,7600,0,20,0,7600
sync_net,1,18:09:23,-1,3,2,400,12000,0,30,0,12000
sync_net,1,18:09:23,-1,4,2,1,40,0,40,0,40
""
sync_net,1,18:09:24,-1,5,1,190,1900,0,10,0,1900
sync_net,1,18:09:24,-1,6,1,380,7600,0,20,0,7600
sync_net,1,18:09:24,-1,7,1,400,12000,0,30,0,12000
sync_net,1,18:09:24,-1,8,1,1,40,0,40,0,40
""
sync_net,1,18:09:25,0,1,2,400,4000,8.77,10,0,4000
sync_net,1,18:09:25,1,2,2,380,7600,0,20,0,7600
sync_net,1,18:09:25,2,3,2,190,5700,0,30,0,5700
sync_net,1,18:09:25,3,4,2,0,0,0,40,0,0
""
sync_net,1,18:09:25,-1,5,1,190,1900,0,10,0,1900
sync_net,1,18:09:25,-1,6,1,380,7600,0,20,0,7600
sync_net,1,18:09:25,-1,7,1,400,12000,0,30,0,12000
sync_net,1,18:09:25,-1,8,1,1,40,0,40,0,40
""
sync_net,1,18:09:26,0,1,2,400,4000,28.77,10,0,4000
sync_net,1,18:09:26,1,2,2,380,7600,0,20,0,7600
sync_net,1,18:09:26,2,3,2,190,5700,0,30,0,5700
sync_net,1,18:09:26,3,4,2,0,0,0,40,0,0
""
sync_net,1,18:09:26,-1,5,1,190,1900,0,10,0,1900
sync_net,1,18:09:26,-1,6,1,380,7600,0,20,0,7600
sync_net,1,18:09:26,-1,7,1,400,12000,0,30,0,12000
sync_net,1,18:09:26,-1,8,1,1,40,0,40,0,40
""
sync_net,1,18:09:27,0,1,2,400,4000,28.77,10,0,4000
sync_net,1,18:09:27,1,2,2,380,7600,0,20,0,7600
sync_net,1,18:09:27,2,3,2,190,5700,0,30,0,5700
sync_net,1,18:09:27,3,4,2,0,0,0,40,0,0
""
sync_net,1,18:09:27,-1,5,1,190,1900,0,10,0,1900
sync_net,1,18:09:27,-1,6,1,380,7600,0,20,0,7600
sync_net,1,18:09:27,-1,7,1,400,12000,0,30,0,12000
sync_net,1,18:09:27,-1,8,1,1,40,0,40,0,40
""
sync_net,1,18:09:28,0,1,2,400,4000,28.77,10,0,4000
sync_net,1,18:09:28,1,2,2,380,7600,0,20,0,7600
sync_net,1,18:09:28,2,3,2,190,5700,0,30,0,5700
sync_net,1,18:09:28,3,4,2,0,0,0,40,0,0
""
sync_net,1,18:09:28,-1,5,1,190,1900,0,10,0,1900
sync_net,1,18:09:28,-1,6,1,380,7600,0,20,0,7600
sync_net,1,18:09:28,-1,7,1,400,12000,0,30,0,12000
sync_net,1,18:09:28,-1,8,1,1,40,0,40,0,40
""
sync_net,1,18:09:29,0,1,2,400,4000,28.77,10,0,4000
sync_net,1,18:09:29,1,2,2,380,7600,0,20,0,7600
sync_net,1,18:09:29,2,3,2,190,5700,0,30,0,5700
sync_net,1,18:09:29,3,4,2,0,0,0,40,0,0
""
sync_net,1,18:09:30,-1,5,1,190,1900,0,10,0,1900
sync_net,1,18:09:30,-1,6,1,380,7600,0,20,0,7600
sync_net,1,18:09:30,-1,7,1,400,12000,0,30,0,12000
sync_net,1,18:09:30,-1,8,1,1,40,0,40,0,40
""
sync_net,1,18:09:30,0,1,2,400,4000,28.77,10,0,4000
sync_net,1,18:09:30,1,2,2,380,7600,21.48,20,0,7600
sync_net,1,18:09:30,2,3,2,190,5700,0,30,0,5700
sync_net,1,18:09:30,3,4,2,0,0,0,40,0,0
""
sync_net,1,18:09:31,-1,5,1,190,1900,0,10,0,1900
sync_net,1,18:09:31,-1,6,1,380,7600,0,20,0,7600
sync_net,1,18:09:31,-1,7,1,400,12000,0,30,0,12000
sync_net,1,18:09:31,-1,8,1,1,40,38.89,40,0,40
""
sync_net,1,18:09:31,0,1,2,400,4000,28.77,10,8592,-4592
sync_net,1,18:09:31,1,2,2,380,7600,21.48,20,0,7600
sync_net,1,18:09:31,2,3,2,190,5700,0,30,0,5700
sync_net,1,18:09:31,3,4,2,0,0,0,40,0,0
""
sync_net,1,18:09:32,-1,5,1,190,1900,0,10,0,1900
sync_net,1,18:09:32,-1,6,1,380,7600,0,20,0,7600
sync_net,1,18:09:32,-1,7,1,400,12000,0,30,15556,-3556
sync_net,1,18:09:32,-1,8,1,1,40,38.89,40,0,40
""
sync_net,1,18:09:32,0,1,2,400,4000,28.77,10,8592,-4592
sync_net,1,18:09:32,1,2,2,380,7600,21.48,20,0,7600
sync_net,1,18:09:32,2,3,2,190,5700,0,30,0,5700
sync_net,1,18:09:32,3,4,2,0,0,0,40,0,0
""
sync_net,1,18:09:33,-1,5,1,190,1900,0,10,0,1900
sync_net,1,18:09:33,-1,6,1,380,7600,0,20,0,7600
sync_net,1,18:09:33,-1,7,1,400,12000,0,30,15556,-3556
sync_net,1,18:09:33,-1,8,1,1,40,38.89,40,0,40
""
sync_net,1,18:09:33,0,1,2,400,4000,28.77,10,8592,-4592
sync_net,1,18:09:33,1,2,2,380,7600,21.48,20,0,7600
sync_net,1,18:09:33,2,3,2,190,5700,0,30,0,5700
sync_net,1,18:09:33,3,4,2,0,0,0,40,0,0
""
sync_net,1,18:09:34,-1,5,1,190,1900,0,10,0,1900
sync_net,1,18:09:34,-1,6,1,380,7600,0,20,0,7600
sync_net,1,18:09:34,-1,7,1,400,12000,0,30,15556,-3556
sync_net,1,18:09:34,-1,8,1,1,40,38.89,40,0,40
""
sync_net,1,18:09:35,0,1,2,400,4000,28.77,10,8592,-4592
sync_net,1,18:09:35,1,2,2,380,7600,21.48,20,0,7600
sync_net,1,18:09:35,2,3,2,190,5700,0,30,0,5700
sync_net,1,18:09:35,3,4,2,0,0,0,40,0,0
""
sync_net,1,18:09:35,-1,5,1,190,1900,0,10,0,1900
sync_net,1,18:09:35,-1,6,1,380,7600,0,20,0,7600
sync_net,1,18:09:35,-1,7,1,400,12000,0,30,15556,-3556
sync_net,1,18:09:35,-1,8,1,1,40,38.89,40,0,40
""
sync_net,1,18:09:36,0,1,2,400,4000,28.77,10,8592,-4592
sync_net,1,18:09:36,1,2,2,380,7600,21.48,20,0,7600
sync_net,1,18:09:36,2,3,2,190,5700,0,30,0,5700
sync_net,1,18:09:36,3,4,2,0,0,0,40,0,0
""
sync_net,1,18:09:36,-1,5,1,190,1900,0,10,0,1900
sync_net,1,18:09:36,-1,6,1,380,7600,0,20,0,7600
sync_net,1,18:09:36,-1,7,1,400,12000,30.25,30,15556,-3556
sync_net,1,18:09:36,-1,8,1,1,40,38.89,40,0,40
""
sync_net,1,18:09:37,0,1,2,400,4000,28.77,10,8592,-4592
sync_net,1,18:09:37,1,2,2,380,7600,21.48,20,0,7600
sync_net,1,18:09:37,2,3,2,190,5700,0,30,0,5700
sync_net,1,18:09:37,3,4,2,0,0,0,40,0,0
""
sync_net,1,18:09:37,-1,5,1,190,1900,0,10,0,1900
sync_net,1,18:09:37,-1,6,1,380,7600,0,20,11495,-3895
sync_net,1,18:09:37,-1,7,1,400,12000,30.25,30,15556,-3556
sync_net,1,18:09:37,-1,8,1,1,40,38.89,40,0,40
""
sync_net,1,18:09:38,0,1,2,400,4000,28.77,10,8592,-4592
sync_net,1,18:09:38,1,2,2,380,7600,21.48,20,0,7600
sync_net,1,18:09:38,2,3,2,190,5700,0,30,0,5700
sync_net,1,18:09:38,3,4,2,0,0,0,40,0,0
""
sync_net,1,18:09:38,-1,5,1,190,1900,0,10,0,1900
sync_net,1,18:09:38,-1,6,1,380,7600,0,20,11495,-3895
sync_net,1,18:09:38,-1,7,1,400,12000,30.25,30,15556,-3556
sync_net,1,18:09:38,-1,8,1,1,40,38.89,40,0,40
""
sync_net,1,18:09:39,0,1,2,400,4000,28.77,10,8592,-4592
sync_net,1,18:09:39,1,2,2,380,7600,21.48,20,0,7600
sync_net,1,18:09:39,2,3,2,190,5700,37.04,30,0,5700
sync_net,1,18:09:39,3,4,2,0,0,0,40,0,0
""
sync_net,1,18:09:39,-1,5,1,190,1900,0,10,0,1900
sync_net,1,18:09:39,-1,6,1,380,7600,0,20,11495,-3895
sync_net,1,18:09:39,-1,7,1,400,12000,30.25,30,15556,-3556
sync_net,1,18:09:39,-1,8,1,1,40,38.89,40,0,40
""
sync_net,1,18:09:40,0,3,2,400,12000,37.04,30,11508,492
sync_net,1,18:09:40,1,1,2,380,3800,28.77,10,8162.4,-4362.4
sync_net,1,18:09:40,2,2,2,190,3800,21.48,20,0,3800
sync_net,1,18:09:40,3,4,2,0,0,0,40,0,0
""
sync_net,1,18:09:40,-1,5,1,190,1900,0,10,0,1900
sync_net,1,18:09:40,-1,6,1,380,7600,0,20,11495,-3895
sync_net,1,18:09:40,-1,7,1,400,12000,30.25,30,15556,-3556
sync_net,1,18:09:40,-1,8,1,1,40,38.89,40,0,40
""
sync_net,1,18:09:41,0,3,2,400,12000,37.04,30,11508,492
sync_net,1,18:09:41,1,1,2,380,3800,28.77,10,8162.4,-4362.4
sync_net,1,18:09:41,2,2,2,190,3800,21.48,20,0,3800
sync_net,1,18:09:41,3,4,2,0,0,0,40,0,0
""
sync_net,1,18:09:42,-1,5,1,190,1900,0,10,0,1900
sync_net,1,18:09:42,-1,6,1,380,7600,0,20,11495,-3895
sync_net,1,18:09:42,-1,7,1,400,12000,30.25,30,15556,-3556
sync_net,1,18:09:42,-1,8,1,1,40,38.89,40,0,40
""
sync_net,1,18:09:42,0,3,2,400,12000,37.04,30,11508,492
sync_net,1,18:09:42,1,1,2,380,3800,28.77,10,8162.4,-4362.4
sync_net,1,18:09:42,2,2,2,190,3800,21.48,20,0,3800
sync_net,1,18:09:42,3,4,2,0,0,0,40,0,0
""
sync_net,1,18:09:43,-1,5,1,190,1900,0,10,0,1900
sync_net,1,18:09:43,-1,6,1,380,7600,0,20,11495,-3895
sync_net,1,18:09:43,-1,7,1,400,12000,30.25,30,15556,-3556
sync_net,1,18:09:43,-1,8,1,1,40,38.89,40,0,40
""
sync_net,1,18:09:43,0,3,2,400,12000,37.04,30,11508,492
sync_net,1,18:09:43,1,1,2,380,3800,28.77,10,8162.4,-4362.4
sync_net,1,18:09:43,2,2,2,190,3800,21.48,20,0,3800
sync_net,1,18:09:43,3,4,2,0,0,0,40,0,0
""
sync_net,1,18:09:44,-1,5,1,190,1900,0,10,0,1900
sync_net,1,18:09:44,-1,6,1,380,7600,20.74,20,11495,-3895
sync_net,1,18:09:44,-1,7,1,400,12000,30.25,30,15556,-3556
sync_net,1,18:09:44,-1,8,1,1,40,38.89,40,0,40
""
sync_net,1,18:09:44,0,3,2,400,12000,37.04,30,11508,492
sync_net,1,18:09:44,1,1,2,380,3800,28.77,10,8162.4,-4362.4
sync_net,1,18:09:44,2,2,2,190,3800,21.48,20,0,3800
sync_net,1,18:09:44,3,4,2,0,0,0,40,0,0
""
sync_net,1,18:09:45,-1,5,1,190,1900,0,10,3940.6,-2040.6
sync_net,1,18:09:45,-1,6,1,380,7600,20.74,20,11495,-3895
sync_net,1,18:09:45,-1,7,1,400,12000,30.25,30,15556,-3556
sync_net,1,18:09:45,-1,8,1,1,40,38.89,40,0,40
""
sync_net,1,18:09:45,0,3,2,400,12000,37.04,30,11508,492
sync_net,1,18:09:45,1,1,2,380,3800,28.77,10,8162.4,-4362.4
sync_net,1,18:09:45,2,2,2,190,3800,21.48,20,0,3800
sync_net,1,18:09:45,3,4,2,0,0,0,40,0,0
""
sync_net,1,18:09:46,-1,5,1,190,1900,0,10,3940.6,-2040.6
sync_net,1,18:09:46,-1,6,1,380,7600,20.74,20,11495,-3895
sync_net,1,18:09:46,-1,7,1,400,12000,30.25,30,15556,-3556
sync_net,1,18:09:46,-1,8,1,1,40,38.89,40,0,40
""
sync_net,1,18:09:47,0,3,2,400,12000,37.04,30,11508,492
sync_net,1,18:09:47,1,1,2,380,3800,28.77,10,8162.4,-4362.4
sync_net,1,18:09:47,2,2,2,190,3800,21.48,20,0,3800
sync_net,1,18:09:47,3,4,2,0,0,0,40,0,0
""
sync_net,1,18:09:47,-1,5,1,190,1900,0,10,3940.6,-2040.6
sync_net,1,18:09:47,-1,6,1,380,7600,20.74,20,11495,-3895
sync_net,1,18:09:47,-1,7,1,400,12000,30.25,30,15556,-3556
sync_net,1,18:09:47,-1,8,1,1,40,38.89,40,0,40
""
sync_net,1,18:09:48,0,3,2,400,12000,37.04,30,11508,492
sync_net,1,18:09:48,1,1,2,380,3800,28.77,10,8162.4,-4362.4
sync_net,1,18:09:48,2,2,2,190,3800,21.48,20,0,3800
sync_net,1,18:09:48,3,4,2,0,0,0,40,0,0
""
sync_net,1,18:09:48,-1,5,1,190,1900,0,10,3940.6,-2040.6
sync_net,1,18:09:48,-1,6,1,380,7600,20.74,20,11495,-3895
sync_net,1,18:09:48,-1,7,1,400,12000,30.25,30,15556,-3556
sync_net,1,18:09:48,-1,8,1,1,40,38.89,40,0,40
""
sync_net,1,18:09:49,0,3,2,400,12000,37.04,30,11508,492
sync_net,1,18:09:49,1,1,2,380,3800,28.77,10,8162.4,-4362.4
sync_net,1,18:09:49,2,2,2,190,3800,21.48,20,0,3800
sync_net,1,18:09:49,3,4,2,0,0,0,40,0,0
""
sync_net,1,18:09:49,0,8,1,400,16000,38.89,40,12100,16000
sync_net,1,18:09:49,1,7,1,380,11400,30.25,30,7881.2,-4156
sync_net,1,18:09:49,2,6,1,190,3800,20.74,20,1877.2,-7695
sync_net,1,18:09:49,3,5,1,0,0,9.88,10,0,0
""
sync_net,1,18:09:50,0,3,2,400,12000,37.04,30,11508,492
sync_net,1,18:09:50,1,1,2,380,3800,28.77,10,8162.4,-4362.4
sync_net,1,18:09:50,2,2,2,190,3800,21.48,20,0,3800
sync_net,1,18:09:50,3,4,2,0,0,0,40,0,0
""
sync_net,1,18:09:50,0,8,1,400,16000,38.89,40,12100,3900
sync_net,1,18:09:50,1,7,1,380,11400,30.25,30,7881.2,3518.8
sync_net,1,18:09:50,2,6,1,190,3800,20.74,20,1877.2,1922.8
sync_net,1,18:09:50,3,5,1,0,0,9.88,10,0,0
""
sync_net,1,18:09:51,0,3,2,400,12000,37.04,30,11508,492
sync_net,1,18:09:51,1,1,2,380,3800,28.77,10,8162.4,-4362.4
sync_net,1,18:09:51,2,2,2,190,3800,21.48,20,0,3800
sync_net,1,18:09:51,3,4,2,0,0,0,40,0,0
""
sync_net,1,18:09:51,0,8,1,400,16000,38.89,40,12100,3900
sync_net,1,18:09:51,1,7,1,380,11400,30.25,30,7881.2,3518.8
sync_net,1,18:09:51,2,6,1,190,3800,20.74,20,1877.2,1922.8
sync_net,1,18:09:51,3,5,1,0,0,9.88,10,0,0
""
sync_net,1,18:09:52,0,3,2,400,12000,37.04,30,11508,492
sync_net,1,18:09:52,1,1,2,380,3800,28.77,10,8162.4,-4362.4
sync_net,1,18:09:52,2,2,2,190,3800,21.48,20,0,3800
sync_net,1,18:09:52,3,4,2,0,0,0,40,0,0
""
sync_net,1,18:09:52,0,8,1,400,16000,38.89,40,12100,3900
sync_net,1,18:09:52,1,7,1,380,11400,30.25,30,7881.2,3518.8
sync_net,1,18:09:52,2,6,1,190,3800,20.74,20,1877.2,1922.8
sync_net,1,18:09:52,3,5,1,0,0,9.88,10,0,0
""
sync_net,1,18:09:53,0,3,2,400,12000,37.04,30,11508,492
sync_net,1,18:09:53,1,1,2,380,3800,28.77,10,8162.4,-4362.4
sync_net,1,18:09:53,2,2,2,190,3800,21.48,20,0,3800
sync_net,1,18:09:53,3,4,2,0,0,33.95,40,0,0
""
sync_net,1,18:09:53,0,8,1,400,16000,38.89,40,12100,3900
sync_net,1,18:09:53,1,7,1,380,11400,30.25,30,7881.2,3518.8
sync_net,1,18:09:53,2,6,1,190,3800,20.74,20,1877.2,1922.8
sync_net,1,18:09:53,3,5,1,0,0,9.88,10,0,0
""
sync_net,1,18:09:54,0,3,2,400,12000,37.04,30,13580,-1580
sync_net,1,18:09:54,1,4,2,380,15200,40.12,40,10932.6,4267.4
sync_net,1,18:09:54,2,1,2,190,1900,28.77,10,4081.2,-2181.2
sync_net,1,18:09:54,3,2,2,0,0,21.48,20,0,0
""
sync_net,1,18:09:54,0,8,1,400,16000,38.89,40,12100,3900
sync_net,1,18:09:54,1,7,1,380,11400,30.25,30,7881.2,3518.8
sync_net,1,18:09:54,2,6,1,190,3800,20.74,20,1877.2,1922.8
sync_net,1,18:09:54,3,5,1,0,0,9.88,10,0,0
""
sync_net,1,18:09:55,0,4,2,400,16000,40.12,40,14816,1184
sync_net,1,18:09:55,1,3,2,380,11400,37.04,30,10932.6,467.39999999999964
sync_net,1,18:09:55,2,1,2,190,1900,28.77,10,4081.2,-2181.2
sync_net,1,18:09:55,3,2,2,0,0,21.48,20,0,0
""
sync_net,1,18:09:55,0,8,1,400,16000,38.89,40,12100,3900
sync_net,1,18:09:55,1,7,1,380,11400,30.25,30,7881.2,3518.8
sync_net,1,18:09:55,2,6,1,190,3800,20.74,20,1877.2,1922.8
sync_net,1,18:09:55,3,5,1,0,0,9.88,10,0,0
""
sync_net,1,18:09:56,0,4,2,400,16000,40.12,40,14816,1184
sync_net,1,18:09:56,1,3,2,380,11400,37.04,30,10932.6,467.39999999999964
sync_net,1,18:09:56,2,1,2,190,1900,28.77,10,4081.2,-2181.2
sync_net,1,18:09:56,3,2,2,0,0,21.48,20,0,0
""
sync_net,1,18:09:57,0,8,1,400,16000,38.89,40,12100,3900
sync_net,1,18:09:57,1,7,1,380,11400,30.25,30,7881.2,3518.8
sync_net,1,18:09:57,2,6,1,190,3800,20.74,20,1877.2,1922.8
sync_net,1,18:09:57,3,5,1,0,0,9.88,10,0,0
""
sync_net,1,18:09:57,0,4,2,400,16000,40.12,40,14816,1184
sync_net,1,18:09:57,1,3,2,380,11400,37.04,30,10932.6,467.39999999999964
sync_net,1,18:09:57,2,1,2,190,1900,28.77,10,4081.2,-2181.2
sync_net,1,18:09:57,3,2,2,0,0,21.48,20,0,0
""
sync_net,1,18:09:58,0,8,1,400,16000,38.89,40,12100,3900
sync_net,1,18:09:58,1,7,1,380,11400,30.25,30,7881.2,3518.8
sync_net,1,18:09:58,2,6,1,190,3800,20.74,20,1877.2,1922.8
sync_net,1,18:09:58,3,5,1,0,0,9.88,10,0,0
""
sync_net,1,18:09:58,0,4,2,400,16000,40.12,40,14816,1184
sync_net,1,18:09:58,1,3,2,380,11400,37.04,30,10932.6,467.39999999999964
sync_net,1,18:09:58,2,1,2,190,1900,28.77,10,4081.2,-2181.2
sync_net,1,18:09:58,3,2,2,0,0,21.48,20,0,0
""
sync_net,1,18:09:59,0,8,1,400,16000,38.89,40,12100,3900
sync_net,1,18:09:59,1,7,1,380,11400,30.25,30,7881.2,3518.8
sync_net,1,18:09:59,2,6,1,190,3800,20.74,20,1877.2,1922.8
sync_net,1,18:09:59,3,5,1,0,0,9.88,10,0,0
""
sync_net,1,18:10:00,0,4,2,400,16000,40.12,40,14816,1184
sync_net,1,18:10:00,1,3,2,380,11400,37.04,30,10932.6,467.39999999999964
sync_net,1,18:10:00,2,1,2,190,1900,28.77,10,4081.2,-2181.2
sync_net,1,18:10:00,3,2,2,0,0,21.48,20,0,0
""
sync_net,1,18:10:00,0,8,1,400,16000,38.89,40,12100,3900
sync_net,1,18:10:00,1,7,1,380,11400,30.25,30,7881.2,3518.8
sync_net,1,18:10:00,2,6,1,190,3800,20.74,20,1877.2,1922.8
sync_net,1,18:10:00,3,5,1,0,0,9.88,10,0,0
""
sync_net,1,18:10:01,0,4,2,400,16000,40.12,40,14816,1184
sync_net,1,18:10:01,1,3,2,380,11400,37.04,30,10932.6,467.39999999999964
sync_net,1,18:10:01,2,1,2,190,1900,28.77,10,4081.2,-2181.2
sync_net,1,18:10:01,3,2,2,0,0,21.48,20,0,0
""
sync_net,1,18:10:01,0,8,1,400,16000,38.89,40,12100,3900
sync_net,1,18:10:01,1,7,1,380,11400,30.25,30,7881.2,3518.8
sync_net,1,18:10:01,2,6,1,190,3800,20.74,20,1877.2,1922.8
sync_net,1,18:10:01,3,5,1,0,0,9.88,10,0,0
""
sync_net,1,18:10:02,0,4,2,400,16000,40.12,40,14816,1184
sync_net,1,18:10:02,1,3,2,380,11400,37.04,30,10932.6,467.39999999999964
sync_net,1,18:10:02,2,1,2,190,1900,28.77,10,4081.2,-2181.2
sync_net,1,18:10:02,3,2,2,0,0,21.48,20,0,0
""
sync_net,1,18:10:02,0,8,1,400,16000,38.89,40,12100,3900
sync_net,1,18:10:02,1,7,1,380,11400,30.25,30,7881.2,3518.8
sync_net,1,18:10:02,2,6,1,190,3800,20.74,20,1877.2,1922.8
sync_net,1,18:10:02,3,5,1,0,0,9.88,10,0,0
""
sync_net,1,18:10:03,0,4,2,400,16000,40.12,40,14816,1184
sync_net,1,18:10:03,1,3,2,380,11400,37.04,30,10932.6,467.39999999999964
sync_net,1,18:10:03,2,1,2,190,1900,28.77,10,4081.2,-2181.2
sync_net,1,18:10:03,3,2,2,0,0,21.48,20,0,0
""
sync_net,1,18:10:03,0,8,1,400,16000,38.89,40,12100,3900
sync_net,1,18:10:03,1,7,1,380,11400,30.25,30,7881.2,3518.8
sync_net,1,18:10:03,2,6,1,190,3800,20.74,20,1877.2,1922.8
sync_net,1,18:10:03,3,5,1,0,0,9.88,10,0,0
""
sync_net,1,18:10:04,0,4,2,400,16000,40.12,40,14816,1184
sync_net,1,18:10:04,1,3,2,380,11400,37.04,30,10932.6,467.39999999999964
sync_net,1,18:10:04,2,1,2,190,1900,28.77,10,4081.2,-2181.2
sync_net,1,18:10:04,3,2,2,0,0,21.48,20,0,0
""
sync_net,1,18:10:04,0,8,1,400,16000,38.89,40,12100,3900
sync_net,1,18:10:04,1,7,1,380,11400,30.25,30,7881.2,3518.8
sync_net,1,18:10:04,2,6,1,190,3800,20.74,20,1877.2,1922.8
sync_net,1,18:10:04,3,5,1,0,0,9.88,10,0,0
""
sync_net,1,18:10:05,0,4,2,400,16000,40.12,40,14816,1184
sync_net,1,18:10:05,1,3,2,380,11400,37.04,30,10932.6,467.39999999999964
sync_net,1,18:10:05,2,1,2,190,1900,28.77,10,4081.2,-2181.2
sync_net,1,18:10:05,3,2,2,0,0,21.48,20,0,0
""
sync_net,1,18:10:05,0,8,1,400,16000,38.89,40,12100,3900
sync_net,1,18:10:05,1,7,1,380,11400,30.25,30,7881.2,3518.8
sync_net,1,18:10:05,2,6,1,190,3800,20.74,20,1877.2,1922.8
sync_net,1,18:10:05,3,5,1,0,0,9.88,10,0,0
""
sync_net,1,18:10:06,0,4,2,400,16000,40.12,40,14816,1184
sync_net,1,18:10:06,1,3,2,380,11400,37.04,30,10932.6,467.39999999999964
sync_net,1,18:10:06,2,1,2,190,1900,28.77,10,4081.2,-2181.2
sync_net,1,18:10:06,3,2,2,0,0,21.48,20,0,0
""
sync_net,1,18:10:06,0,8,1,400,16000,38.89,40,12100,3900
sync_net,1,18:10:06,1,7,1,380,11400,30.25,30,7881.2,3518.8
sync_net,1,18:10:06,2,6,1,190,3800,20.74,20,1877.2,1922.8
sync_net,1,18:10:06,3,5,1,0,0,9.88,10,0,0
""
sync_net,1,18:10:07,0,4,2,400,16000,40.12,40,14816,1184
sync_net,1,18:10:07,1,3,2,380,11400,37.04,30,10932.6,467.39999999999964
sync_net,1,18:10:07,2,1,2,190,1900,28.77,10,4081.2,-2181.2
sync_net,1,18:10:07,3,2,2,0,0,21.48,20,0,0
""
sync_net,1,18:10:07,0,8,1,400,16000,38.89,40,12100,3900
sync_net,1,18:10:07,1,7,1,380,11400,30.25,30,7881.2,3518.8
sync_net,1,18:10:07,2,6,1,190,3800,20.74,20,1877.2,1922.8
sync_net,1,18:10:07,3,5,1,0,0,9.88,10,0,0
""
sync_net,1,18:10:08,0,4,2,400,16000,40.12,40,14816,1184
sync_net,1,18:10:08,1,3,2,380,11400,37.04,30,10932.6,467.39999999999964
sync_net,1,18:10:08,2,1,2,190,1900,28.77,10,4081.2,-2181.2
sync_net,1,18:10:08,3,2,2,0,0,21.48,20,0,0
""
sync_net,1,18:10:08,0,8,1,400,16000,38.89,40,12100,3900
sync_net,1,18:10:08,1,7,1,380,11400,42.1,30,7881.2,3518.8
sync_net,1,18:10:08,2,6,1,190,3800,20.74,20,1877.2,1922.8
sync_net,1,18:10:08,3,5,1,0,0,9.88,10,0,0
""
sync_net,1,18:10:09,0,4,2,400,16000,40.12,40,14816,1184
sync_net,1,18:10:09,1,3,2,380,11400,37.04,30,10932.6,467.39999999999964
sync_net,1,18:10:09,2,1,2,190,1900,28.77,10,4081.2,-2181.2
sync_net,1,18:10:09,3,2,2,0,0,21.48,20,0,0
""
sync_net,1,18:10:10,0,7,1,400,12000,44.32,30,15556,-3556
sync_net,1,18:10:10,1,8,1,380,15200,38.89,40,7881.2,7318.8
sync_net,1,18:10:10,2,6,1,190,3800,20.74,20,1877.2,1922.8
sync_net,1,18:10:10,3,5,1,0,0,9.88,10,0,0
""
sync_net,1,18:10:10,0,4,2,400,16000,40.12,40,14816,1184
sync_net,1,18:10:10,1,3,2,380,11400,37.04,30,10932.6,467.39999999999964
sync_net,1,18:10:10,2,1,2,190,1900,28.77,10,4081.2,-2181.2
sync_net,1,18:10:10,3,2,2,0,0,21.48,20,0,0
""
sync_net,1,18:10:11,0,7,1,400,12000,44.32,30,15556,-3556
sync_net,1,18:10:11,1,8,1,380,15200,38.89,40,7881.2,7318.8
sync_net,1,18:10:11,2,6,1,190,3800,20.74,20,1877.2,1922.8
sync_net,1,18:10:11,3,5,1,0,0,9.88,10,0,0
""
sync_net,1,18:10:12,0,4,2,400,16000,40.12,40,14816,1184
sync_net,1,18:10:12,1,3,2,380,11400,37.04,30,10932.6,467.39999999999964
sync_net,1,18:10:12,2,1,2,190,1900,28.77,10,4081.2,-2181.2
sync_net,1,18:10:12,3,2,2,0,0,21.48,20,0,0
""
sync_net,1,18:10:12,0,7,1,400,12000,44.32,30,15556,-3556
sync_net,1,18:10:12,1,8,1,380,15200,38.89,40,7881.2,7318.8
sync_net,1,18:10:12,2,6,1,190,3800,20.74,20,1877.2,1922.8
sync_net,1,18:10:12,3,5,1,0,0,9.88,10,0,0
""
sync_net,1,18:10:13,0,4,2,400,16000,40.12,40,14816,1184
sync_net,1,18:10:13,1,3,2,380,11400,37.04,30,10932.6,467.39999999999964
sync_net,1,18:10:13,2,1,2,190,1900,28.77,10,4081.2,-2181.2
sync_net,1,18:10:13,3,2,2,0,0,21.48,20,0,0
""
sync_net,1,18:10:13,0,7,1,400,12000,44.32,30,15556,-3556
sync_net,1,18:10:13,1,8,1,380,15200,38.89,40,7881.2,7318.8
sync_net,1,18:10:13,2,6,1,190,3800,20.74,20,1877.2,1922.8
sync_net,1,18:10:13,3,5,1,0,0,9.88,10,0,0
""
sync_net,1,18:10:14,0,4,2,400,16000,40.12,40,14816,1184
sync_net,1,18:10:14,1,3,2,380,11400,37.04,30,10932.6,467.39999999999964
sync_net,1,18:10:14,2,1,2,190,1900,28.77,10,4081.2,-2181.2
sync_net,1,18:10:14,3,2,2,0,0,21.48,20,0,0
""
sync_net,1,18:10:14,0,7,1,400,12000,44.32,30,15556,-3556
sync_net,1,18:10:14,1,8,1,380,15200,38.89,40,7881.2,7318.8
sync_net,1,18:10:14,2,6,1,190,3800,20.74,20,1877.2,1922.8
sync_net,1,18:10:14,3,5,1,0,0,9.88,10,0,0
""
sync_net,1,18:10:15,0,4,2,400,16000,40.12,40,14816,1184
sync_net,1,18:10:15,1,3,2,380,11400,37.04,30,10932.6,467.39999999999964
sync_net,1,18:10:15,2,1,2,190,1900,28.77,10,4081.2,-2181.2
sync_net,1,18:10:15,3,2,2,0,0,21.48,20,0,0
""
sync_net,1,18:10:15,0,7,1,400,12000,44.32,30,15556,-3556
sync_net,1,18:10:15,1,8,1,380,15200,38.89,40,7881.2,7318.8
sync_net,1,18:10:15,2,6,1,190,3800,20.74,20,1877.2,1922.8
sync_net,1,18:10:15,3,5,1,0,0,9.88,10,0,0
""
sync_net,1,18:10:16,0,4,2,400,16000,40.12,40,14816,1184
sync_net,1,18:10:16,1,3,2,380,11400,37.04,30,10932.6,467.39999999999964
sync_net,1,18:10:16,2,1,2,190,1900,28.77,10,4081.2,-2181.2
sync_net,1,18:10:16,3,2,2,0,0,21.48,20,0,0
""
sync_net,1,18:10:16,0,7,1,400,12000,30.49,30,15556,-3556
sync_net,1,18:10:16,1,8,1,380,15200,38.89,40,7881.2,7318.8
sync_net,1,18:10:16,2,6,1,190,3800,20.74,20,1877.2,1922.8
sync_net,1,18:10:16,3,5,1,0,0,9.88,10,0,0
""
sync_net,1,18:10:17,0,4,2,400,16000,40.12,40,14816,1184
sync_net,1,18:10:17,1,3,2,380,11400,37.04,30,10932.6,467.39999999999964
sync_net,1,18:10:17,2,1,2,190,1900,28.77,10,4081.2,-2181.2
sync_net,1,18:10:17,3,2,2,0,0,21.48,20,0,0
""
sync_net,1,18:10:17,0,8,1,400,16000,38.89,40,12196,3804
sync_net,1,18:10:17,1,7,1,380,11400,30.49,30,7881.2,3518.8
sync_net,1,18:10:17,2,6,1,190,3800,20.74,20,1877.2,1922.8
sync_net,1,18:10:17,3,5,1,0,0,9.88,10,0,0
""
sync_net,1,18:10:18,0,4,2,400,16000,40.12,40,14816,1184
sync_net,1,18:10:18,1,3,2,380,11400,37.04,30,10932.6,467.39999999999964
sync_net,1,18:10:18,2,1,2,190,1900,28.77,10,4081.2,-2181.2
sync_net,1,18:10:18,3,2,2,0,0,21.48,20,0,0
""
sync_net,1,18:10:18,0,8,1,400,16000,38.89,40,12196,3804
sync_net,1,18:10:18,1,7,1,380,11400,30.49,30,7881.2,3518.8
sync_net,1,18:10:18,2,6,1,190,3800,20.74,20,1877.2,1922.8
sync_net,1,18:10:18,3,5,1,0,0,9.88,10,0,0
""
sync_net,1,18:10:19,0,4,2,400,16000,40.12,40,14816,1184
sync_net,1,18:10:19,1,3,2,380,11400,37.04,30,10932.6,467.39999999999964
sync_net,1,18:10:19,2,1,2,190,1900,28.77,10,4081.2,-2181.2
sync_net,1,18:10:19,3,2,2,0,0,21.48,20,0,0
""
sync_net,1,18:10:19,0,8,1,400,16000,38.89,40,12196,3804
sync_net,1,18:10:19,1,7,1,380,11400,30.49,30,7881.2,3518.8
sync_net,1,18:10:19,2,6,1,190,3800,20.74,20,1877.2,1922.8
sync_net,1,18:10:19,3,5,1,0,0,9.88,10,0,0
""
sync_net,1,18:10:20,0,4,2,400,16000,40.12,40,14816,1184
sync_net,1,18:10:20,1,3,2,380,11400,37.04,30,10932.6,467.39999999999964
sync_net,1,18:10:20,2,1,2,190,1900,28.77,10,4081.2,-2181.2
sync_net,1,18:10:20,3,2,2,0,0,21.48,20,0,0
""
sync_net,1,18:10:20,0,8,1,400,16000,38.89,40,12196,3804
sync_net,1,18:10:20,1,7,1,380,11400,30.49,30,7881.2,3518.8
sync_net,1,18:10:20,2,6,1,190,3800,20.74,20,1877.2,1922.8
sync_net,1,18:10:20,3,5,1,0,0,9.88,10,0,0
""
sync_net,1,18:10:21,0,4,2,400,16000,40.12,40,14816,1184
sync_net,1,18:10:21,1,3,2,380,11400,37.04,30,10932.6,467.39999999999964
sync_net,1,18:10:21,2,1,2,190,1900,28.77,10,4081.2,-2181.2
sync_net,1,18:10:21,3,2,2,0,0,21.48,20,0,0
""
sync_net,1,18:10:22,0,8,1,400,16000,38.89,40,12196,3804
sync_net,1,18:10:22,1,7,1,380,11400,30.49,30,7881.2,3518.8
sync_net,1,18:10:22,2,6,1,190,3800,20.74,20,1877.2,1922.8
sync_net,1,18:10:22,3,5,1,0,0,9.88,10,0,0
""
sync_net,1,18:10:22,0,4,2,400,16000,40.12,40,14816,1184
sync_net,1,18:10:22,1,3,2,380,11400,37.04,30,10932.6,467.39999999999964
sync_net,1,18:10:22,2,1,2,190,1900,28.77,10,4081.2,-2181.2
sync_net,1,18:10:22,3,2,2,0,0,21.48,20,0,0
""
sync_net,1,18:10:23,0,8,1,400,16000,38.89,40,12196,3804
sync_net,1,18:10:23,1,7,1,380,11400,30.49,30,7881.2,3518.8
sync_net,1,18:10:23,2,6,1,190,3800,20.74,20,1877.2,1922.8
sync_net,1,18:10:23,3,5,1,0,0,9.88,10,0,0
""
sync_net,1,18:10:24,0,4,2,400,16000,40.12,40,14816,1184
sync_net,1,18:10:24,1,3,2,380,11400,37.04,30,10932.6,467.39999999999964
sync_net,1,18:10:24,2,1,2,190,1900,28.77,10,4081.2,-2181.2
sync_net,1,18:10:24,3,2,2,0,0,21.48,20,0,0
""
sync_net,1,18:10:24,0,8,1,400,16000,38.89,40,12196,3804
sync_net,1,18:10:24,1,7,1,380,11400,30.49,30,7881.2,3518.8
sync_net,1,18:10:24,2,6,1,190,3800,20.74,20,1877.2,1922.8
sync_net,1,18:10:24,3,5,1,0,0,9.88,10,0,0
""
sync_net,1,18:10:25,0,4,2,400,16000,40.12,40,14816,1184
sync_net,1,18:10:25,1,3,2,380,11400,37.04,30,10932.6,467.39999999999964
sync_net,1,18:10:25,2,1,2,190,1900,28.77,10,4081.2,-2181.2
sync_net,1,18:10:25,3,2,2,0,0,21.48,20,0,0
""
sync_net,1,18:10:25,0,8,1,400,16000,38.89,40,12196,3804
sync_net,1,18:10:25,1,7,1,380,11400,30.49,30,7881.2,3518.8
sync_net,1,18:10:25,2,6,1,190,3800,20.74,20,1877.2,1922.8
sync_net,1,18:10:25,3,5,1,0,0,9.88,10,0,0
""
sync_net,1,18:10:26,0,4,2,400,16000,40.12,40,14816,1184
sync_net,1,18:10:26,1,3,2,380,11400,37.04,30,10932.6,467.39999999999964
sync_net,1,18:10:26,2,1,2,190,1900,28.77,10,4081.2,-2181.2
sync_net,1,18:10:26,3,2,2,0,0,21.48,20,0,0
""
sync_net,1,18:10:26,0,8,1,400,16000,38.89,40,12196,3804
sync_net,1,18:10:26,1,7,1,380,11400,30.49,30,7881.2,3518.8
sync_net,1,18:10:26,2,6,1,190,3800,20.74,20,1877.2,1922.8
sync_net,1,18:10:26,3,5,1,0,0,9.88,10,0,0
""
sync_net,1,18:10:27,0,4,2,400,16000,40.12,40,14816,1184
sync_net,1,18:10:27,1,3,2,380,11400,37.04,30,10932.6,467.39999999999964
sync_net,1,18:10:27,2,1,2,190,1900,28.77,10,4081.2,-2181.2
sync_net,1,18:10:27,3,2,2,0,0,21.48,20,0,0
""
sync_net,1,18:10:27,0,8,1,400,16000,38.89,40,12196,3804
sync_net,1,18:10:27,1,7,1,380,11400,30.49,30,7881.2,3518.8
sync_net,1,18:10:27,2,6,1,190,3800,20.74,20,1877.2,1922.8
sync_net,1,18:10:27,3,5,1,0,0,9.88,10,0,0
""
sync_net,1,18:10:28,0,4,2,400,16000,40.12,40,14816,1184
sync_net,1,18:10:28,1,3,2,380,11400,37.04,30,10932.6,467.39999999999964
sync_net,1,18:10:28,2,1,2,190,1900,28.77,10,4081.2,-2181.2
sync_net,1,18:10:28,3,2,2,0,0,21.48,20,0,0
""
sync_net,1,18:10:28,0,8,1,400,16000,38.89,40,12196,3804
sync_net,1,18:10:28,1,7,1,380,11400,30.49,30,7881.2,3518.8
sync_net,1,18:10:28,2,6,1,190,3800,20.74,20,1877.2,1922.8
sync_net,1,18:10:28,3,5,1,0,0,9.88,10,0,0
""
sync_net,1,18:10:29,0,4,2,400,16000,40.12,40,14816,1184
sync_net,1,18:10:29,1,3,2,380,11400,37.04,30,10932.6,467.39999999999964
sync_net,1,18:10:29,2,1,2,190,1900,28.77,10,4081.2,-2181.2
sync_net,1,18:10:29,3,2,2,0,0,21.48,20,0,0
""
sync_net,1,18:10:29,0,8,1,400,16000,38.89,40,12196,3804
sync_net,1,18:10:29,1,7,1,380,11400,30.49,30,7881.2,3518.8
sync_net,1,18:10:29,2,6,1,190,3800,20.74,20,1877.2,1922.8
sync_net,1,18:10:29,3,5,1,0,0,9.88,10,0,0
""
sync_net,1,18:10:30,0,4,2,400,16000,40.12,40,14816,1184
sync_net,1,18:10:30,1,3,2,380,11400,37.04,30,10932.6,467.39999999999964
sync_net,1,18:10:30,2,1,2,190,1900,28.77,10,4081.2,-2181.2
sync_net,1,18:10:30,3,2,2,0,0,21.48,20,0,0
""
sync_net,1,18:10:30,0,8,1,400,16000,38.89,40,12196,3804
sync_net,1,18:10:30,1,7,1,380,11400,30.49,30,7881.2,3518.8
sync_net,1,18:10:30,2,6,1,190,3800,20.74,20,1877.2,1922.8
sync_net,1,18:10:30,3,5,1,0,0,9.88,10,0,0
""
sync_net,1,18:10:31,0,4,2,400,16000,40.12,40,14816,1184
sync_net,1,18:10:31,1,3,2,380,11400,37.04,30,10932.6,467.39999999999964
sync_net,1,18:10:31,2,1,2,190,1900,28.77,10,4081.2,-2181.2
sync_net,1,18:10:31,3,2,2,0,0,21.48,20,0,0
""
sync_net,1,18:10:31,0,8,1,400,16000,38.89,40,12196,3804
sync_net,1,18:10:31,1,7,1,380,11400,30.49,30,7881.2,3518.8
sync_net,1,18:10:31,2,6,1,190,3800,20.74,20,1877.2,1922.8
sync_net,1,18:10:31,3,5,1,0,0,9.88,10,0,0
""
sync_net,1,18:10:32,0,4,2,400,16000,40.12,40,14816,1184
sync_net,1,18:10:32,1,3,2,380,11400,37.04,30,10932.6,467.39999999999964
sync_net,1,18:10:32,2,1,2,190,1900,28.77,10,4081.2,-2181.2
sync_net,1,18:10:32,3,2,2,0,0,21.48,20,0,0
""
sync_net,1,18:10:32,0,8,1,400,16000,38.89,40,12196,3804
sync_net,1,18:10:32,1,7,1,380,11400,30.49,30,7881.2,3518.8
sync_net,1,18:10:32,2,6,1,190,3800,20.74,20,1877.2,1922.8
sync_net,1,18:10:32,3,5,1,0,0,9.88,10,0,0
""
sync_net,1,18:10:33,0,4,2,400,16000,40.12,40,14816,1184
sync_net,1,18:10:33,1,3,2,380,11400,37.04,30,10932.6,467.39999999999964
sync_net,1,18:10:33,2,1,2,190,1900,28.77,10,4081.2,-2181.2
sync_net,1,18:10:33,3,2,2,0,0,21.48,20,0,0
""
sync_net,1,18:10:33,0,8,1,400,16000,38.89,40,12196,3804
sync_net,1,18:10:33,1,7,1,380,11400,30.49,30,7881.2,3518.8
sync_net,1,18:10:33,2,6,1,190,3800,20.74,20,1877.2,1922.8
sync_net,1,18:10:33,3,5,1,0,0,9.88,10,0,0
""
sync_net,1,18:10:34,0,4,2,400,16000,40.12,40,14816,1184
sync_net,1,18:10:34,1,3,2,380,11400,37.04,30,10932.6,467.39999999999964
sync_net,1,18:10:34,2,1,2,190,1900,28.77,10,4081.2,-2181.2
sync_net,1,18:10:34,3,2,2,0,0,21.48,20,0,0
""
sync_net,1,18:10:34,0,8,1,400,16000,38.89,40,12196,3804
sync_net,1,18:10:34,1,7,1,380,11400,30.49,30,7881.2,3518.8
sync_net,1,18:10:34,2,6,1,190,3800,20.74,20,1877.2,1922.8
sync_net,1,18:10:34,3,5,1,0,0,9.88,10,0,0
""
sync_net,1,18:10:35,0,4,2,400,16000,40.12,40,14816,1184
sync_net,1,18:10:35,1,3,2,380,11400,37.04,30,10932.6,467.39999999999964
sync_net,1,18:10:35,2,1,2,190,1900,28.77,10,4081.2,-2181.2
sync_net,1,18:10:35,3,2,2,0,0,21.48,20,0,0
""
sync_net,1,18:10:35,0,8,1,400,16000,38.89,40,12196,3804
sync_net,1,18:10:35,1,7,1,380,11400,30.49,30,7881.2,3518.8
sync_net,1,18:10:35,2,6,1,190,3800,20.74,20,1877.2,1922.8
sync_net,1,18:10:35,3,5,1,0,0,9.88,10,0,0
""
sync_net,1,18:10:36,0,4,2,400,16000,40.12,40,14816,1184
sync_net,1,18:10:36,1,3,2,380,11400,37.04,30,10932.6,467.39999999999964
sync_net,1,18:10:36,2,1,2,190,1900,28.77,10,4081.2,-2181.2
sync_net,1,18:10:36,3,2,2,0,0,21.48,20,0,0
""
sync_net,1,18:10:37,0,8,1,400,16000,38.89,40,12196,3804
sync_net,1,18:10:37,1,7,1,380,11400,30.49,30,7881.2,3518.8
sync_net,1,18:10:37,2,6,1,190,3800,20.74,20,1877.2,1922.8
sync_net,1,18:10:37,3,5,1,0,0,9.88,10,0,0
""
sync_net,1,18:10:38,0,4,2,400,16000,40.12,40,14816,1184
sync_net,1,18:10:38,1,3,2,380,11400,37.04,30,10932.6,467.39999999999964
sync_net,1,18:10:38,2,1,2,190,1900,28.77,10,4081.2,-2181.2
sync_net,1,18:10:38,3,2,2,0,0,21.48,20,0,0
""
sync_net,1,18:10:38,0,8,1,400,16000,38.89,40,12196,3804
sync_net,1,18:10:38,1,7,1,380,11400,30.49,30,7881.2,3518.8
sync_net,1,18:10:38,2,6,1,190,3800,20.74,20,1877.2,1922.8
sync_net,1,18:10:38,3,5,1,0,0,9.88,10,0,0
""
sync_net,1,18:10:39,0,4,2,400,16000,40.12,40,14816,1184
sync_net,1,18:10:39,1,3,2,380,11400,37.04,30,10932.6,467.39999999999964
sync_net,1,18:10:39,2,1,2,190,1900,28.77,10,4081.2,-2181.2
sync_net,1,18:10:39,3,2,2,0,0,21.48,20,0,0
""
sync_net,1,18:10:39,0,8,1,400,16000,38.89,40,12196,3804
sync_net,1,18:10:39,1,7,1,380,11400,30.49,30,7881.2,3518.8
sync_net,1,18:10:39,2,6,1,190,3800,20.74,20,1877.2,1922.8
sync_net,1,18:10:39,3,5,1,0,0,9.88,10,0,0
""
sync_net,1,18:10:40,0,4,2,400,16000,40.12,40,14816,1184
sync_net,1,18:10:40,1,3,2,380,11400,37.04,30,10932.6,467.39999999999964
sync_net,1,18:10:40,2,1,2,190,1900,28.77,10,4081.2,-2181.2
sync_net,1,18:10:40,3,2,2,0,0,21.48,20,0,0
""
sync_net,1,18:10:40,0,8,1,400,16000,38.89,40,12196,3804
sync_net,1,18:10:40,1,7,1,380,11400,30.49,30,7881.2,3518.8
sync_net,1,18:10:40,2,6,1,190,3800,20.74,20,1877.2,1922.8
sync_net,1,18:10:40,3,5,1,0,0,9.88,10,0,0
""
sync_net,1,18:10:41,0,8,1,400,16000,38.89,40,12196,3804
sync_net,1,18:10:41,1,7,1,380,11400,30.49,30,7881.2,3518.8
sync_net,1,18:10:41,2,6,1,190,3800,20.74,20,1877.2,1922.8
sync_net,1,18:10:41,3,5,1,0,0,9.88,10,0,0
""
sync_net,1,18:10:41,0,4,2,400,16000,40.12,40,14816,1184
sync_net,1,18:10:41,1,3,2,380,11400,37.04,30,10932.6,467.39999999999964
sync_net,1,18:10:41,2,1,2,190,1900,28.77,10,4081.2,-2181.2
sync_net,1,18:10:41,3,2,2,0,0,21.48,20,0,0
""
sync_net,1,18:10:42,0,8,1,400,16000,38.89,40,12196,3804
sync_net,1,18:10:42,1,7,1,380,11400,30.49,30,7881.2,3518.8
sync_net,1,18:10:42,2,6,1,190,3800,20.74,20,1877.2,1922.8
sync_net,1,18:10:42,3,5,1,0,0,9.88,10,0,0
""
sync_net,1,18:10:42,0,4,2,400,16000,40.12,40,14816,1184
sync_net,1,18:10:42,1,3,2,380,11400,37.04,30,10932.6,467.39999999999964
sync_net,1,18:10:42,2,1,2,190,1900,28.77,10,4081.2,-2181.2
sync_net,1,18:10:42,3,2,2,0,0,21.48,20,0,0
""
sync_net,1,18:10:43,0,8,1,400,16000,38.89,40,12196,3804
sync_net,1,18:10:43,1,7,1,380,11400,30.49,30,7881.2,3518.8
sync_net,1,18:10:43,2,6,1,190,3800,20.74,20,1877.2,1922.8
sync_net,1,18:10:43,3,5,1,0,0,9.88,10,0,0
""
sync_net,1,18:10:43,0,4,2,400,16000,40.12,40,14816,1184
sync_net,1,18:10:43,1,3,2,380,11400,37.04,30,10932.6,467.39999999999964
sync_net,1,18:10:43,2,1,2,190,1900,28.77,10,4081.2,-2181.2
sync_net,1,18:10:43,3,2,2,0,0,21.48,20,0,0
""
sync_net,1,18:10:44,0,8,1,400,16000,38.89,40,12196,3804
sync_net,1,18:10:44,1,7,1,380,11400,30.49,30,7881.2,3518.8
sync_net,1,18:10:44,2,6,1,190,3800,20.74,20,1877.2,1922.8
sync_net,1,18:10:44,3,5,1,0,0,9.88,10,0,0
""
sync_net,1,18:10:44,0,4,2,400,16000,40.12,40,14816,1184
sync_net,1,18:10:44,1,3,2,380,11400,37.04,30,10932.6,467.39999999999964
sync_net,1,18:10:44,2,1,2,190,1900,28.77,10,4081.2,-2181.2
sync_net,1,18:10:44,3,2,2,0,0,21.48,20,0,0
""
sync_net,1,18:10:45,0,8,1,400,16000,38.89,40,12196,3804
sync_net,1,18:10:45,1,7,1,380,11400,30.49,30,7881.2,3518.8
sync_net,1,18:10:45,2,6,1,190,3800,20.74,20,1877.2,1922.8
sync_net,1,18:10:45,3,5,1,0,0,9.88,10,0,0
""
sync_net,1,18:10:45,0,4,2,400,16000,40.12,40,14816,1184
sync_net,1,18:10:45,1,3,2,380,11400,37.04,30,10932.6,467.39999999999964
sync_net,1,18:10:45,2,1,2,190,1900,28.77,10,4081.2,-2181.2
sync_net,1,18:10:45,3,2,2,0,0,21.48,20,0,0
""
sync_net,1,18:10:46,0,8,1,400,16000,38.89,40,12196,3804
sync_net,1,18:10:46,1,7,1,380,11400,30.49,30,7881.2,3518.8
sync_net,1,18:10:46,2,6,1,190,3800,20.74,20,1877.2,1922.8
sync_net,1,18:10:46,3,5,1,0,0,9.88,10,0,0
""
sync_net,1,18:10:47,0,4,2,400,16000,40.12,40,14816,1184
sync_net,1,18:10:47,1,3,2,380,11400,37.04,30,10932.6,467.39999999999964
sync_net,1,18:10:47,2,1,2,190,1900,28.77,10,4081.2,-2181.2
sync_net,1,18:10:47,3,2,2,0,0,21.48,20,0,0
""
sync_net,1,18:10:47,0,8,1,400,16000,38.89,40,12196,3804
sync_net,1,18:10:47,1,7,1,380,11400,30.49,30,7881.2,3518.8
sync_net,1,18:10:47,2,6,1,190,3800,20.74,20,1877.2,1922.8
sync_net,1,18:10:47,3,5,1,0,0,9.88,10,0,0
""
sync_net,1,18:10:48,0,4,2,400,16000,40.12,40,14816,1184
sync_net,1,18:10:48,1,3,2,380,11400,37.04,30,10932.6,467.39999999999964
sync_net,1,18:10:48,2,1,2,190,1900,28.77,10,4081.2,-2181.2
sync_net,1,18:10:48,3,2,2,0,0,21.48,20,0,0
""
sync_net,1,18:10:48,0,8,1,400,16000,38.89,40,12196,3804
sync_net,1,18:10:48,1,7,1,380,11400,30.49,30,7881.2,3518.8
sync_net,1,18:10:48,2,6,1,190,3800,20.74,20,1877.2,1922.8
sync_net,1,18:10:48,3,5,1,0,0,9.88,10,0,0
""
sync_net,1,18:10:49,0,4,2,400,16000,40.12,40,14816,1184
sync_net,1,18:10:49,1,3,2,380,11400,37.04,30,10932.6,467.39999999999964
sync_net,1,18:10:49,2,1,2,190,1900,28.77,10,4081.2,-2181.2
sync_net,1,18:10:49,3,2,2,0,0,21.48,20,0,0
""
sync_net,1,18:10:49,0,8,1,400,16000,38.89,40,12196,3804
sync_net,1,18:10:49,1,7,1,380,11400,30.49,30,7881.2,3518.8
sync_net,1,18:10:49,2,6,1,190,3800,20.74,20,1877.2,1922.8
sync_net,1,18:10:49,3,5,1,0,0,9.88,10,0,0
""
sync_net,1,18:10:50,0,4,2,400,16000,40.12,40,14816,1184
sync_net,1,18:10:50,1,3,2,380,11400,37.04,30,10932.6,467.39999999999964
sync_net,1,18:10:50,2,1,2,190,1900,28.77,10,4081.2,-2181.2
sync_net,1,18:10:50,3,2,2,0,0,21.48,20,0,0
""
sync_net,1,18:10:51,0,8,1,400,16000,38.89,40,12196,3804
sync_net,1,18:10:51,1,7,1,380,11400,30.49,30,7881.2,3518.8
sync_net,1,18:10:51,2,6,1,190,3800,20.74,20,1877.2,1922.8
sync_net,1,18:10:51,3,5,1,0,0,9.88,10,0,0
""
sync_net,1,18:10:51,0,4,2,400,16000,40.12,40,14816,1184
sync_net,1,18:10:51,1,3,2,380,11400,37.04,30,10932.6,467.39999999999964
sync_net,1,18:10:51,2,1,2,190,1900,28.77,10,4081.2,-2181.2
sync_net,1,18:10:51,3,2,2,0,0,21.48,20,0,0
""
sync_net,1,18:10:52,0,8,1,400,16000,38.89,40,12196,3804
sync_net,1,18:10:52,1,7,1,380,11400,30.49,30,7881.2,3518.8
sync_net,1,18:10:52,2,6,1,190,3800,20.74,20,1877.2,1922.8
sync_net,1,18:10:52,3,5,1,0,0,9.88,10,0,0
""
sync_net,1,18:10:52,0,4,2,400,16000,40.12,40,14816,1184
sync_net,1,18:10:52,1,3,2,380,11400,37.04,30,10932.6,467.39999999999964
sync_net,1,18:10:52,2,1,2,190,1900,28.77,10,4081.2,-2181.2
sync_net,1,18:10:52,3,2,2,0,0,21.48,20,0,0
""
sync_net,1,18:10:53,0,8,1,400,16000,38.89,40,12196,3804
sync_net,1,18:10:53,1,7,1,380,11400,30.49,30,7881.2,3518.8
sync_net,1,18:10:53,2,6,1,190,3800,20.74,20,1877.2,1922.8
sync_net,1,18:10:53,3,5,1,0,0,9.88,10,0,0
""
sync_net,1,18:10:53,0,4,2,400,16000,40.12,40,14816,1184
sync_net,1,18:10:53,1,3,2,380,11400,37.04,30,10932.6,467.39999999999964
sync_net,1,18:10:53,2,1,2,190,1900,28.77,10,4081.2,-2181.2
sync_net,1,18:10:53,3,2,2,0,0,21.48,20,0,0
""
sync_net,1,18:10:54,0,8,1,400,16000,38.89,40,12196,3804
sync_net,1,18:10:54,1,7,1,380,11400,30.49,30,7881.2,3518.8
sync_net,1,18:10:54,2,6,1,190,3800,20.74,20,1877.2,1922.8
sync_net,1,18:10:54,3,5,1,0,0,9.88,10,0,0
""
sync_net,1,18:10:54,0,4,2,400,16000,40.12,40,14816,1184
sync_net,1,18:10:54,1,3,2,380,11400,37.04,30,10932.6,467.39999999999964
sync_net,1,18:10:54,2,1,2,190,1900,28.77,10,4081.2,-2181.2
sync_net,1,18:10:54,3,2,2,0,0,21.48,20,0,0
""
sync_net,1,18:10:55,0,8,1,400,16000,38.89,40,12196,3804
sync_net,1,18:10:55,1,7,1,380,11400,30.49,30,7881.2,3518.8
sync_net,1,18:10:55,2,6,1,190,3800,20.74,20,1877.2,1922.8
sync_net,1,18:10:55,3,5,1,0,0,9.88,10,0,0
""
sync_net,1,18:10:55,0,4,2,400,16000,40.12,40,14816,1184
sync_net,1,18:10:55,1,3,2,380,11400,37.04,30,10932.6,467.39999999999964
sync_net,1,18:10:55,2,1,2,190,1900,28.77,10,4081.2,-2181.2
sync_net,1,18:10:55,3,2,2,0,0,21.48,20,0,0
""
sync_net,1,18:10:56,0,8,1,400,16000,38.89,40,12196,3804
sync_net,1,18:10:56,1,7,1,380,11400,30.49,30,7881.2,3518.8
sync_net,1,18:10:56,2,6,1,190,3800,20.74,20,1877.2,1922.8
sync_net,1,18:10:56,3,5,1,0,0,9.88,10,0,0
""
sync_net,1,18:10:56,0,4,2,400,16000,40.12,40,14816,1184
sync_net,1,18:10:56,1,3,2,380,11400,37.04,30,10932.6,467.39999999999964
sync_net,1,18:10:56,2,1,2,190,1900,28.77,10,4081.2,-2181.2
sync_net,1,18:10:56,3,2,2,0,0,21.48,20,0,0
""
sync_net,1,18:10:57,0,8,1,400,16000,38.89,40,12196,3804
sync_net,1,18:10:57,1,7,1,380,11400,30.49,30,7881.2,3518.8
sync_net,1,18:10:57,2,6,1,190,3800,20.74,20,1877.2,1922.8
sync_net,1,18:10:57,3,5,1,0,0,9.88,10,0,0
""
sync_net,1,18:10:58,0,4,2,400,16000,40.12,40,14816,1184
sync_net,1,18:10:58,1,3,2,380,11400,37.04,30,10932.6,467.39999999999964
sync_net,1,18:10:58,2,1,2,190,1900,28.77,10,4081.2,-2181.2
sync_net,1,18:10:58,3,2,2,0,0,21.48,20,0,0
""
sync_net,1,18:10:58,0,8,1,400,16000,38.89,40,12196,3804
sync_net,1,18:10:58,1,7,1,380,11400,30.49,30,7881.2,3518.8
sync_net,1,18:10:58,2,6,1,190,3800,20.74,20,1877.2,1922.8
sync_net,1,18:10:58,3,5,1,0,0,9.88,10,0,0
""
sync_net,1,18:10:59,0,4,2,400,16000,40.12,40,14816,1184
sync_net,1,18:10:59,1,3,2,380,11400,37.04,30,10932.6,467.39999999999964
sync_net,1,18:10:59,2,1,2,190,1900,28.77,10,4081.2,-2181.2
sync_net,1,18:10:59,3,2,2,0,0,21.48,20,0,0
""
sync_net,1,18:10:59,0,8,1,400,16000,38.89,40,12196,3804
sync_net,1,18:10:59,1,7,1,380,11400,30.49,30,7881.2,3518.8
sync_net,1,18:10:59,2,6,1,190,3800,20.74,20,1877.2,1922.8
sync_net,1,18:10:59,3,5,1,0,0,9.88,10,0,0
""
sync_net,1,18:11:00,0,4,2,400,16000,40.12,40,14816,1184
sync_net,1,18:11:00,1,3,2,380,11400,37.04,30,10932.6,467.39999999999964
sync_net,1,18:11:00,2,1,2,190,1900,28.77,10,4081.2,-2181.2
sync_net,1,18:11:00,3,2,2,0,0,21.48,20,0,0
""
sync_net,1,18:11:00,0,8,1,400,16000,38.89,40,12196,3804
sync_net,1,18:11:00,1,7,1,380,11400,30.49,30,7881.2,3518.8
sync_net,1,18:11:00,2,6,1,190,3800,20.74,20,1877.2,1922.8
sync_net,1,18:11:00,3,5,1,0,0,9.88,10,0,0
""
sync_net,1,18:11:01,0,4,2,400,16000,40.12,40,14816,1184
sync_net,1,18:11:01,1,3,2,380,11400,37.04,30,10932.6,467.39999999999964
sync_net,1,18:11:01,2,1,2,190,1900,28.77,10,4081.2,-2181.2
sync_net,1,18:11:01,3,2,2,0,0,21.48,20,0,0
""
sync_net,1,18:11:01,0,8,1,400,16000,38.89,40,12196,3804
sync_net,1,18:11:01,1,7,1,380,11400,30.49,30,7881.2,3518.8
sync_net,1,18:11:01,2,6,1,190,3800,20.74,20,1877.2,1922.8
sync_net,1,18:11:01,3,5,1,0,0,9.88,10,0,0
""
sync_net,1,18:11:02,0,4,2,400,16000,40.12,40,14816,1184
sync_net,1,18:11:02,1,3,2,380,11400,37.04,30,10932.6,467.39999999999964
sync_net,1,18:11:02,2,1,2,190,1900,28.77,10,4081.2,-2181.2
sync_net,1,18:11:02,3,2,2,0,0,21.48,20,0,0
""
sync_net,1,18:11:03,0,8,1,400,16000,38.89,40,12196,3804
sync_net,1,18:11:03,1,7,1,380,11400,30.49,30,7881.2,3518.8
sync_net,1,18:11:03,2,6,1,190,3800,20.74,20,1877.2,1922.8
sync_net,1,18:11:03,3,5,1,0,0,9.88,10,0,0
""
sync_net,1,18:11:03,0,4,2,400,16000,40.12,40,14816,1184
sync_net,1,18:11:03,1,3,2,380,11400,37.04,30,10932.6,467.39999999999964
sync_net,1,18:11:03,2,1,2,190,1900,28.77,10,4081.2,-2181.2
sync_net,1,18:11:03,3,2,2,0,0,21.48,20,0,0
""
sync_net,1,18:11:04,0,8,1,400,16000,38.89,40,12196,3804
sync_net,1,18:11:04,1,7,1,380,11400,30.49,30,7881.2,3518.8
sync_net,1,18:11:04,2,6,1,190,3800,20.74,20,1877.2,1922.8
sync_net,1,18:11:04,3,5,1,0,0,9.88,10,0,0
""
sync_net,1,18:11:04,0,4,2,400,16000,40.12,40,14816,1184
sync_net,1,18:11:04,1,3,2,380,11400,37.04,30,10932.6,467.39999999999964
sync_net,1,18:11:04,2,1,2,190,1900,28.77,10,4081.2,-2181.2
sync_net,1,18:11:04,3,2,2,0,0,21.48,20,0,0
""
sync_net,1,18:11:05,0,8,1,400,16000,38.89,40,12196,3804
sync_net,1,18:11:05,1,7,1,380,11400,30.49,30,7881.2,3518.8
sync_net,1,18:11:05,2,6,1,190,3800,20.74,20,1877.2,1922.8
sync_net,1,18:11:05,3,5,1,0,0,9.88,10,0,0
""
sync_net,1,18:11:05,0,4,2,400,16000,40.12,40,14816,1184
sync_net,1,18:11:05,1,3,2,380,11400,37.04,30,10932.6,467.39999999999964
sync_net,1,18:11:05,2,1,2,190,1900,28.77,10,4081.2,-2181.2
sync_net,1,18:11:05,3,2,2,0,0,21.48,20,0,0
""
sync_net,1,18:11:06,0,8,1,400,16000,38.89,40,12196,3804
sync_net,1,18:11:06,1,7,1,380,11400,30.49,30,7881.2,3518.8
sync_net,1,18:11:06,2,6,1,190,3800,20.74,20,1877.2,1922.8
sync_net,1,18:11:06,3,5,1,0,0,9.88,10,0,0
""
sync_net,1,18:11:07,0,4,2,400,16000,40.12,40,14816,1184
sync_net,1,18:11:07,1,3,2,380,11400,37.04,30,10932.6,467.39999999999964
sync_net,1,18:11:07,2,1,2,190,1900,28.77,10,4081.2,-2181.2
sync_net,1,18:11:07,3,2,2,0,0,21.48,20,0,0
""
sync_net,1,18:11:07,0,8,1,400,16000,38.89,40,12196,3804
sync_net,1,18:11:07,1,7,1,380,11400,30.49,30,7881.2,3518.8
sync_net,1,18:11:07,2,6,1,190,3800,20.74,20,1877.2,1922.8
sync_net,1,18:11:07,3,5,1,0,0,9.88,10,0,0
""
sync_net,1,18:11:08,0,4,2,400,16000,40.12,40,14816,1184
sync_net,1,18:11:08,1,3,2,380,11400,37.04,30,10932.6,467.39999999999964
sync_net,1,18:11:08,2,1,2,190,1900,28.77,10,4081.2,-2181.2
sync_net,1,18:11:08,3,2,2,0,0,21.48,20,0,0
""
sync_net,1,18:11:08,0,8,1,400,16000,38.89,40,12196,3804
sync_net,1,18:11:08,1,7,1,380,11400,30.49,30,7881.2,3518.8
sync_net,1,18:11:08,2,6,1,190,3800,20.74,20,1877.2,1922.8
sync_net,1,18:11:08,3,5,1,0,0,9.88,10,0,0
""
sync_net,1,18:11:09,0,4,2,400,16000,40.12,40,14816,1184
sync_net,1,18:11:09,1,3,2,380,11400,37.04,30,10932.6,467.39999999999964
sync_net,1,18:11:09,2,1,2,190,1900,28.77,10,4081.2,-2181.2
sync_net,1,18:11:09,3,2,2,0,0,21.48,20,0,0
""
sync_net,1,18:11:10,0,8,1,400,16000,38.89,40,12196,3804
sync_net,1,18:11:10,1,7,1,380,11400,30.49,30,7881.2,3518.8
sync_net,1,18:11:10,2,6,1,190,3800,20.74,20,1877.2,1922.8
sync_net,1,18:11:10,3,5,1,0,0,9.88,10,0,0
""
sync_net,1,18:11:10,0,4,2,400,16000,40.12,40,14816,1184
sync_net,1,18:11:10,1,3,2,380,11400,37.04,30,10932.6,467.39999999999964
sync_net,1,18:11:10,2,1,2,190,1900,28.77,10,4081.2,-2181.2
sync_net,1,18:11:10,3,2,2,0,0,21.48,20,0,0
""
sync_net,1,18:11:11,0,8,1,400,16000,38.89,40,12196,3804
sync_net,1,18:11:11,1,7,1,380,11400,30.49,30,7881.2,3518.8
sync_net,1,18:11:11,2,6,1,190,3800,20.74,20,1877.2,1922.8
sync_net,1,18:11:11,3,5,1,0,0,9.88,10,0,0
""
sync_net,1,18:11:11,0,4,2,400,16000,40.12,40,14816,1184
sync_net,1,18:11:11,1,3,2,380,11400,37.04,30,10932.6,467.39999999999964
sync_net,1,18:11:11,2,1,2,190,1900,28.77,10,4081.2,-2181.2
sync_net,1,18:11:11,3,2,2,0,0,21.48,20,0,0
""
sync_net,1,18:11:12,0,8,1,400,16000,38.89,40,12196,3804
sync_net,1,18:11:12,1,7,1,380,11400,30.49,30,7881.2,3518.8
sync_net,1,18:11:12,2,6,1,190,3800,20.74,20,1877.2,1922.8
sync_net,1,18:11:12,3,5,1,0,0,9.88,10,0,0
""
sync_net,1,18:11:12,0,4,2,400,16000,40.12,40,14816,1184
sync_net,1,18:11:12,1,3,2,380,11400,37.04,30,10932.6,467.39999999999964
sync_net,1,18:11:12,2,1,2,190,1900,28.77,10,4081.2,-2181.2
sync_net,1,18:11:12,3,2,2,0,0,21.48,20,0,0
""
sync_net,1,18:11:13,0,8,1,400,16000,38.89,40,12196,3804
sync_net,1,18:11:13,1,7,1,380,11400,30.49,30,7881.2,3518.8
sync_net,1,18:11:13,2,6,1,190,3800,20.74,20,1877.2,1922.8
sync_net,1,18:11:13,3,5,1,0,0,9.88,10,0,0
""
sync_net,1,18:11:13,0,4,2,400,16000,40.12,40,14816,1184
sync_net,1,18:11:13,1,3,2,380,11400,37.04,30,10932.6,467.39999999999964
sync_net,1,18:11:13,2,1,2,190,1900,28.77,10,4081.2,-2181.2
sync_net,1,18:11:13,3,2,2,0,0,21.48,20,0,0
""
sync_net,1,18:11:14,0,8,1,400,16000,38.89,40,12196,3804
sync_net,1,18:11:14,1,7,1,380,11400,30.49,30,7881.2,3518.8
sync_net,1,18:11:14,2,6,1,190,3800,20.74,20,1877.2,1922.8
sync_net,1,18:11:14,3,5,1,0,0,9.88,10,0,0
""
sync_net,1,18:11:14,0,4,2,400,16000,40.12,40,14816,1184
sync_net,1,18:11:14,1,3,2,380,11400,37.04,30,10932.6,467.39999999999964
sync_net,1,18:11:14,2,1,2,190,1900,28.77,10,4081.2,-2181.2
sync_net,1,18:11:14,3,2,2,0,0,21.48,20,0,0
""
sync_net,1,18:11:15,0,8,1,400,16000,38.89,40,12196,3804
sync_net,1,18:11:15,1,7,1,380,11400,30.49,30,7881.2,3518.8
sync_net,1,18:11:15,2,6,1,190,3800,20.74,20,1877.2,1922.8
sync_net,1,18:11:15,3,5,1,0,0,9.88,10,0,0
""
sync_net,1,18:11:16,0,4,2,400,16000,40.12,40,14816,1184
sync_net,1,18:11:16,1,3,2,380,11400,37.04,30,10932.6,467.39999999999964
sync_net,1,18:11:16,2,1,2,190,1900,28.77,10,4081.2,-2181.2
sync_net,1,18:11:16,3,2,2,0,0,21.48,20,0,0
""
sync_net,1,18:11:16,0,8,1,400,16000,38.89,40,12196,3804
sync_net,1,18:11:16,1,7,1,380,11400,30.49,30,7881.2,3518.8
sync_net,1,18:11:16,2,6,1,190,3800,20.74,20,1877.2,1922.8
sync_net,1,18:11:16,3,5,1,0,0,9.88,10,0,0
""
sync_net,1,18:11:17,0,4,2,400,16000,40.12,40,14816,1184
sync_net,1,18:11:17,1,3,2,380,11400,37.04,30,10932.6,467.39999999999964
sync_net,1,18:11:17,2,1,2,190,1900,28.77,10,4081.2,-2181.2
sync_net,1,18:11:17,3,2,2,0,0,21.48,20,0,0
""
sync_net,1,18:11:17,0,8,1,400,16000,38.89,40,12196,3804
sync_net,1,18:11:17,1,7,1,380,11400,30.49,30,7881.2,3518.8
sync_net,1,18:11:17,2,6,1,190,3800,20.74,20,1877.2,1922.8
sync_net,1,18:11:17,3,5,1,0,0,9.88,10,0,0
""
sync_net,1,18:11:18,0,4,2,400,16000,40.12,40,14816,1184
sync_net,1,18:11:18,1,3,2,380,11400,37.04,30,10932.6,467.39999999999964
sync_net,1,18:11:18,2,1,2,190,1900,28.77,10,4081.2,-2181.2
sync_net,1,18:11:18,3,2,2,0,0,21.48,20,0,0
""
sync_net,1,18:11:18,0,8,1,400,16000,38.89,40,12196,3804
sync_net,1,18:11:18,1,7,1,380,11400,30.49,30,7881.2,3518.8
sync_net,1,18:11:18,2,6,1,190,3800,20.74,20,1877.2,1922.8
sync_net,1,18:11:18,3,5,1,0,0,9.88,10,0,0
""
sync_net,1,18:11:19,0,4,2,400,16000,40.12,40,14816,1184
sync_net,1,18:11:19,1,3,2,380,11400,37.04,30,10932.6,467.39999999999964
sync_net,1,18:11:19,2,1,2,190,1900,28.77,10,4081.2,-2181.2
sync_net,1,18:11:19,3,2,2,0,0,21.48,20,0,0
""
sync_net,1,18:11:20,0,8,1,400,16000,38.89,40,12196,3804
sync_net,1,18:11:20,1,7,1,380,11400,30.49,30,7881.2,3518.8
sync_net,1,18:11:20,2,6,1,190,3800,20.74,20,1877.2,1922.8
sync_net,1,18:11:20,3,5,1,0,0,9.88,10,0,0
""
sync_net,1,18:11:20,0,4,2,400,16000,40.12,40,14816,1184
sync_net,1,18:11:20,1,3,2,380,11400,37.04,30,10932.6,467.39999999999964
sync_net,1,18:11:20,2,1,2,190,1900,28.77,10,4081.2,-2181.2
sync_net,1,18:11:20,3,2,2,0,0,21.48,20,0,0
""
sync_net,1,18:11:21,0,8,1,400,16000,38.89,40,12196,3804
sync_net,1,18:11:21,1,7,1,380,11400,30.49,30,7881.2,3518.8
sync_net,1,18:11:21,2,6,1,190,3800,20.74,20,1877.2,1922.8
sync_net,1,18:11:21,3,5,1,0,0,9.88,10,0,0
""
sync_net,1,18:11:21,0,4,2,400,16000,40.12,40,14816,1184
sync_net,1,18:11:21,1,3,2,380,11400,37.04,30,10932.6,467.39999999999964
sync_net,1,18:11:21,2,1,2,190,1900,28.77,10,4081.2,-2181.2
sync_net,1,18:11:21,3,2,2,0,0,21.48,20,0,0
""
sync_net,1,18:11:22,0,8,1,400,16000,38.89,40,12196,3804
sync_net,1,18:11:22,1,7,1,380,11400,30.49,30,7881.2,3518.8
sync_net,1,18:11:22,2,6,1,190,3800,20.74,20,1877.2,1922.8
sync_net,1,18:11:22,3,5,1,0,0,9.88,10,0,0
""
sync_net,1,18:11:22,0,4,2,400,16000,40.12,40,14816,1184
sync_net,1,18:11:22,1,3,2,380,11400,37.04,30,10932.6,467.39999999999964
sync_net,1,18:11:22,2,1,2,190,1900,28.77,10,4081.2,-2181.2
sync_net,1,18:11:22,3,2,2,0,0,21.48,20,0,0
""
sync_net,1,18:11:23,0,8,1,400,16000,38.89,40,12196,3804
sync_net,1,18:11:23,1,7,1,380,11400,30.49,30,7881.2,3518.8
sync_net,1,18:11:23,2,6,1,190,3800,20.74,20,1877.2,1922.8
sync_net,1,18:11:23,3,5,1,0,0,9.88,10,0,0
""
sync_net,1,18:11:23,0,4,2,400,16000,40.12,40,14816,1184
sync_net,1,18:11:23,1,3,2,380,11400,37.04,30,10932.6,467.39999999999964
sync_net,1,18:11:23,2,1,2,190,1900,28.77,10,4081.2,-2181.2
sync_net,1,18:11:23,3,2,2,0,0,21.48,20,0,0
""
sync_net,1,18:11:24,0,8,1,400,16000,38.89,40,12196,3804
sync_net,1,18:11:24,1,7,1,380,11400,30.49,30,7881.2,3518.8
sync_net,1,18:11:24,2,6,1,190,3800,20.74,20,1877.2,1922.8
sync_net,1,18:11:24,3,5,1,0,0,9.88,10,0,0
""
sync_net,1,18:11:25,0,4,2,400,16000,40.12,40,14816,1184
sync_net,1,18:11:25,1,3,2,380,11400,37.04,30,10932.6,467.39999999999964
sync_net,1,18:11:25,2,1,2,190,1900,28.77,10,4081.2,-2181.2
sync_net,1,18:11:25,3,2,2,0,0,21.48,20,0,0
""
sync_net,1,18:11:25,0,8,1,400,16000,38.89,40,12196,3804
sync_net,1,18:11:25,1,7,1,380,11400,30.49,30,7881.2,3518.8
sync_net,1,18:11:25,2,6,1,190,3800,20.74,20,1877.2,1922.8
sync_net,1,18:11:25,3,5,1,0,0,9.88,10,0,0
""
sync_net,1,18:11:26,0,4,2,400,16000,40.12,40,14816,1184
sync_net,1,18:11:26,1,3,2,380,11400,37.04,30,10932.6,467.39999999999964
sync_net,1,18:11:26,2,1,2,190,1900,28.77,10,4081.2,-2181.2
sync_net,1,18:11:26,3,2,2,0,0,21.48,20,0,0
""
sync_net,1,18:11:26,0,8,1,400,16000,38.89,40,12196,3804
sync_net,1,18:11:26,1,7,1,380,11400,30.49,30,7881.2,3518.8
sync_net,1,18:11:26,2,6,1,190,3800,20.74,20,1877.2,1922.8
sync_net,1,18:11:26,3,5,1,0,0,9.88,10,0,0
""
sync_net,1,18:11:27,0,4,2,400,16000,40.12,40,14816,1184
sync_net,1,18:11:27,1,3,2,380,11400,37.04,30,10932.6,467.39999999999964
sync_net,1,18:11:27,2,1,2,190,1900,28.77,10,4081.2,-2181.2
sync_net,1,18:11:27,3,2,2,0,0,21.48,20,0,0
""
sync_net,1,18:11:27,0,8,1,400,16000,38.89,40,12196,3804
sync_net,1,18:11:27,1,7,1,380,11400,30.49,30,7881.2,3518.8
sync_net,1,18:11:27,2,6,1,190,3800,20.74,20,1877.2,1922.8
sync_net,1,18:11:27,3,5,1,0,0,9.88,10,0,0
""
sync_net,1,18:11:28,0,8,1,400,16000,38.89,40,12196,3804
sync_net,1,18:11:28,1,7,1,380,11400,30.49,30,7881.2,3518.8
sync_net,1,18:11:28,2,6,1,190,3800,20.74,20,1877.2,1922.8
sync_net,1,18:11:28,3,5,1,0,0,9.88,10,0,0
""
sync_net,1,18:11:28,0,4,2,400,16000,40.12,40,14816,1184
sync_net,1,18:11:28,1,3,2,380,11400,37.04,30,10932.6,467.39999999999964
sync_net,1,18:11:28,2,1,2,190,1900,28.77,10,4081.2,-2181.2
sync_net,1,18:11:28,3,2,2,0,0,21.48,20,0,0
""
sync_net,1,18:11:29,0,8,1,400,16000,38.89,40,12196,3804
sync_net,1,18:11:29,1,7,1,380,11400,30.49,30,7881.2,3518.8
sync_net,1,18:11:29,2,6,1,190,3800,20.74,20,1877.2,1922.8
sync_net,1,18:11:29,3,5,1,0,0,9.88,10,0,0
""
sync_net,1,18:11:30,0,4,2,400,16000,40.12,40,14816,1184
sync_net,1,18:11:30,1,3,2,380,11400,37.04,30,10932.6,467.39999999999964
sync_net,1,18:11:30,2,1,2,190,1900,28.77,10,4081.2,-2181.2
sync_net,1,18:11:30,3,2,2,0,0,21.48,20,0,0
""
sync_net,1,18:11:31,0,8,1,400,16000,38.89,40,12196,3804
sync_net,1,18:11:31,1,7,1,380,11400,30.49,30,7881.2,3518.8
sync_net,1,18:11:31,2,6,1,190,3800,20.74,20,1877.2,1922.8
sync_net,1,18:11:31,3,5,1,0,0,9.88,10,0,0
""
sync_net,1,18:11:31,0,4,2,400,16000,40.12,40,14816,1184
sync_net,1,18:11:31,1,3,2,380,11400,37.04,30,10932.6,467.39999999999964
sync_net,1,18:11:31,2,1,2,190,1900,28.77,10,4081.2,-2181.2
sync_net,1,18:11:31,3,2,2,0,0,21.48,20,0,0
""
sync_net,1,18:11:32,0,8,1,400,16000,38.89,40,12196,3804
sync_net,1,18:11:32,1,7,1,380,11400,30.49,30,7881.2,3518.8
sync_net,1,18:11:32,2,6,1,190,3800,20.74,20,1877.2,1922.8
sync_net,1,18:11:32,3,5,1,0,0,9.88,10,0,0
""
sync_net,1,18:11:32,0,4,2,400,16000,40.12,40,14816,1184
sync_net,1,18:11:32,1,3,2,380,11400,37.04,30,10932.6,467.39999999999964
sync_net,1,18:11:32,2,1,2,190,1900,28.77,10,4081.2,-2181.2
sync_net,1,18:11:32,3,2,2,0,0,21.48,20,0,0
""
sync_net,1,18:11:33,0,8,1,400,16000,38.89,40,12196,3804
sync_net,1,18:11:33,1,7,1,380,11400,30.49,30,7881.2,3518.8
sync_net,1,18:11:33,2,6,1,190,3800,20.74,20,1877.2,1922.8
sync_net,1,18:11:33,3,5,1,0,0,9.88,10,0,0
""
sync_net,1,18:11:33,0,4,2,400,16000,40.12,40,14816,1184
sync_net,1,18:11:33,1,3,2,380,11400,37.04,30,10932.6,467.39999999999964
sync_net,1,18:11:33,2,1,2,190,1900,28.77,10,4081.2,-2181.2
sync_net,1,18:11:33,3,2,2,0,0,21.48,20,0,0
""
sync_net,1,18:11:34,0,8,1,400,16000,38.89,40,12196,3804
sync_net,1,18:11:34,1,7,1,380,11400,30.49,30,7881.2,3518.8
sync_net,1,18:11:34,2,6,1,190,3800,20.74,20,1877.2,1922.8
sync_net,1,18:11:34,3,5,1,0,0,9.88,10,0,0
""
sync_net,1,18:11:34,0,4,2,400,16000,40.12,40,14816,1184
sync_net,1,18:11:34,1,3,2,380,11400,37.04,30,10932.6,467.39999999999964
sync_net,1,18:11:34,2,1,2,190,1900,28.77,10,4081.2,-2181.2
sync_net,1,18:11:34,3,2,2,0,0,21.48,20,0,0
""
sync_net,1,18:11:35,0,8,1,400,16000,38.89,40,12196,3804
sync_net,1,18:11:35,1,7,1,380,11400,30.49,30,7881.2,3518.8
sync_net,1,18:11:35,2,6,1,190,3800,20.74,20,1877.2,1922.8
sync_net,1,18:11:35,3,5,1,0,0,9.88,10,0,0
""
sync_net,1,18:11:36,0,4,2,400,16000,40.12,40,14816,1184
sync_net,1,18:11:36,1,3,2,380,11400,37.04,30,10932.6,467.39999999999964
sync_net,1,18:11:36,2,1,2,190,1900,28.77,10,4081.2,-2181.2
sync_net,1,18:11:36,3,2,2,0,0,21.48,20,0,0
""
sync_net,1,18:11:36,0,8,1,400,16000,38.89,40,12196,3804
sync_net,1,18:11:36,1,7,1,380,11400,30.49,30,7881.2,3518.8
sync_net,1,18:11:36,2,6,1,190,3800,20.74,20,1877.2,1922.8
sync_net,1,18:11:36,3,5,1,0,0,9.88,10,0,0
""
sync_net,1,18:11:37,0,4,2,400,16000,40.12,40,14816,1184
sync_net,1,18:11:37,1,3,2,380,11400,37.04,30,10932.6,467.39999999999964
sync_net,1,18:11:37,2,1,2,190,1900,28.77,10,4081.2,-2181.2
sync_net,1,18:11:37,3,2,2,0,0,21.48,20,0,0
""
sync_net,1,18:11:37,0,8,1,400,16000,38.89,40,12196,3804
sync_net,1,18:11:37,1,7,1,380,11400,30.49,30,7881.2,3518.8
sync_net,1,18:11:37,2,6,1,190,3800,20.74,20,1877.2,1922.8
sync_net,1,18:11:37,3,5,1,0,0,9.88,10,0,0
""
sync_net,1,18:11:38,0,4,2,400,16000,40.12,40,14816,1184
sync_net,1,18:11:38,1,3,2,380,11400,37.04,30,10932.6,467.39999999999964
sync_net,1,18:11:38,2,1,2,190,1900,28.77,10,4081.2,-2181.2
sync_net,1,18:11:38,3,2,2,0,0,21.48,20,0,0
""
sync_net,1,18:11:39,0,8,1,400,16000,38.89,40,12196,3804
sync_net,1,18:11:39,1,7,1,380,11400,30.49,30,7881.2,3518.8
sync_net,1,18:11:39,2,6,1,190,3800,20.74,20,1877.2,1922.8
sync_net,1,18:11:39,3,5,1,0,0,9.88,10,0,0
""
sync_net,1,18:11:39,0,4,2,400,16000,40.12,40,14816,1184
sync_net,1,18:11:39,1,3,2,380,11400,37.04,30,10932.6,467.39999999999964
sync_net,1,18:11:39,2,1,2,190,1900,28.77,10,4081.2,-2181.2
sync_net,1,18:11:39,3,2,2,0,0,21.48,20,0,0
""
sync_net,1,18:11:40,0,8,1,400,16000,38.89,40,12196,3804
sync_net,1,18:11:40,1,7,1,380,11400,30.49,30,7881.2,3518.8
sync_net,1,18:11:40,2,6,1,190,3800,20.74,20,1877.2,1922.8
sync_net,1,18:11:40,3,5,1,0,0,9.88,10,0,0
""
sync_net,1,18:11:40,0,4,2,400,16000,40.12,40,14816,1184
sync_net,1,18:11:40,1,3,2,380,11400,37.04,30,10932.6,467.39999999999964
sync_net,1,18:11:40,2,1,2,190,1900,28.77,10,4081.2,-2181.2
sync_net,1,18:11:40,3,2,2,0,0,21.48,20,0,0
""
sync_net,1,18:11:41,0,8,1,400,16000,38.89,40,12196,3804
sync_net,1,18:11:41,1,7,1,380,11400,30.49,30,7881.2,3518.8
sync_net,1,18:11:41,2,6,1,190,3800,20.74,20,1877.2,1922.8
sync_net,1,18:11:41,3,5,1,0,0,9.88,10,0,0
""
sync_net,1,18:11:42,0,4,2,400,16000,40.12,40,14816,1184
sync_net,1,18:11:42,1,3,2,380,11400,37.04,30,10932.6,467.39999999999964
sync_net,1,18:11:42,2,1,2,190,1900,28.77,10,4081.2,-2181.2
sync_net,1,18:11:42,3,2,2,0,0,21.48,20,0,0
""
sync_net,1,18:11:42,0,8,1,400,16000,38.89,40,12196,3804
sync_net,1,18:11:42,1,7,1,380,11400,30.49,30,7881.2,3518.8
sync_net,1,18:11:42,2,6,1,190,3800,20.74,20,1877.2,1922.8
sync_net,1,18:11:42,3,5,1,0,0,9.88,10,0,0
""
sync_net,1,18:11:43,0,4,2,400,16000,40.12,40,14816,1184
sync_net,1,18:11:43,1,3,2,380,11400,37.04,30,10932.6,467.39999999999964
sync_net,1,18:11:43,2,1,2,190,1900,28.77,10,4081.2,-2181.2
sync_net,1,18:11:43,3,2,2,0,0,21.48,20,0,0
""
sync_net,1,18:11:43,0,8,1,400,16000,38.89,40,12196,3804
sync_net,1,18:11:43,1,7,1,380,11400,30.49,30,7881.2,3518.8
sync_net,1,18:11:43,2,6,1,190,3800,20.74,20,1877.2,1922.8
sync_net,1,18:11:43,3,5,1,0,0,9.88,10,0,0
""
sync_net,1,18:11:44,0,4,2,400,16000,40.12,40,14816,1184
sync_net,1,18:11:44,1,3,2,380,11400,37.04,30,10932.6,467.39999999999964
sync_net,1,18:11:44,2,1,2,190,1900,28.77,10,4081.2,-2181.2
sync_net,1,18:11:44,3,2,2,0,0,21.48,20,0,0
""
sync_net,1,18:11:44,0,8,1,400,16000,38.89,40,12196,3804
sync_net,1,18:11:44,1,7,1,380,11400,30.49,30,7881.2,3518.8
sync_net,1,18:11:44,2,6,1,190,3800,20.74,20,1877.2,1922.8
sync_net,1,18:11:44,3,5,1,0,0,9.88,10,0,0
""
sync_net,1,18:11:45,0,4,2,400,16000,40.12,40,14816,1184
sync_net,1,18:11:45,1,3,2,380,11400,37.04,30,10932.6,467.39999999999964
sync_net,1,18:11:45,2,1,2,190,1900,28.77,10,4081.2,-2181.2
sync_net,1,18:11:45,3,2,2,0,0,21.48,20,0,0
""
sync_net,1,18:11:45,0,8,1,400,16000,38.89,40,12196,3804
sync_net,1,18:11:45,1,7,1,380,11400,30.49,30,7881.2,3518.8
sync_net,1,18:11:45,2,6,1,190,3800,20.74,20,1877.2,1922.8
sync_net,1,18:11:45,3,5,1,0,0,9.88,10,0,0
""
sync_net,1,18:11:46,0,4,2,400,16000,40.12,40,14816,1184
sync_net,1,18:11:46,1,3,2,380,11400,37.04,30,10932.6,467.39999999999964
sync_net,1,18:11:46,2,1,2,190,1900,28.77,10,4081.2,-2181.2
sync_net,1,18:11:46,3,2,2,0,0,21.48,20,0,0
""
sync_net,1,18:11:47,0,8,1,400,16000,38.89,40,12196,3804
sync_net,1,18:11:47,1,7,1,380,11400,30.49,30,7881.2,3518.8
sync_net,1,18:11:47,2,6,1,190,3800,20.74,20,1877.2,1922.8
sync_net,1,18:11:47,3,5,1,0,0,9.88,10,0,0
""
sync_net,1,18:11:47,0,4,2,400,16000,40.12,40,14816,1184
sync_net,1,18:11:47,1,3,2,380,11400,37.04,30,10932.6,467.39999999999964
sync_net,1,18:11:47,2,1,2,190,1900,28.77,10,4081.2,-2181.2
sync_net,1,18:11:47,3,2,2,0,0,21.48,20,0,0
""
sync_net,1,18:11:48,0,8,1,400,16000,38.89,40,12196,3804
sync_net,1,18:11:48,1,7,1,380,11400,30.49,30,7881.2,3518.8
sync_net,1,18:11:48,2,6,1,190,3800,20.74,20,1877.2,1922.8
sync_net,1,18:11:48,3,5,1,0,0,9.88,10,0,0
""
sync_net,1,18:11:49,0,4,2,400,16000,40.12,40,14816,1184
sync_net,1,18:11:49,1,3,2,380,11400,37.04,30,10932.6,467.39999999999964
sync_net,1,18:11:49,2,1,2,190,1900,28.77,10,4081.2,-2181.2
sync_net,1,18:11:49,3,2,2,0,0,21.48,20,0,0
""
sync_net,1,18:11:49,0,8,1,400,16000,38.89,40,12196,3804
sync_net,1,18:11:49,1,7,1,380,11400,30.49,30,7881.2,3518.8
sync_net,1,18:11:49,2,6,1,190,3800,20.74,20,1877.2,1922.8
sync_net,1,18:11:49,3,5,1,0,0,9.88,10,0,0
""
sync_net,1,18:11:50,0,4,2,400,16000,40.12,40,14816,1184
sync_net,1,18:11:50,1,3,2,380,11400,37.04,30,10932.6,467.39999999999964
sync_net,1,18:11:50,2,1,2,190,1900,28.77,10,4081.2,-2181.2
sync_net,1,18:11:50,3,2,2,0,0,21.48,20,0,0
""
sync_net,1,18:11:50,0,8,1,400,16000,38.89,40,12196,3804
sync_net,1,18:11:50,1,7,1,380,11400,30.49,30,7881.2,3518.8
sync_net,1,18:11:50,2,6,1,190,3800,20.74,20,1877.2,1922.8
sync_net,1,18:11:50,3,5,1,0,0,9.88,10,0,0
""
sync_net,1,18:11:51,0,4,2,400,16000,40.12,40,14816,1184
sync_net,1,18:11:51,1,3,2,380,11400,37.04,30,10932.6,467.39999999999964
sync_net,1,18:11:51,2,1,2,190,1900,28.77,10,4081.2,-2181.2
sync_net,1,18:11:51,3,2,2,0,0,21.48,20,0,0
""
sync_net,1,18:11:51,0,8,1,400,16000,38.89,40,12196,3804
sync_net,1,18:11:51,1,7,1,380,11400,30.49,30,7881.2,3518.8
sync_net,1,18:11:51,2,6,1,190,3800,20.74,20,1877.2,1922.8
sync_net,1,18:11:51,3,5,1,0,0,9.88,10,0,0
""
sync_net,1,18:11:52,0,4,2,400,16000,40.12,40,14816,1184
sync_net,1,18:11:52,1,3,2,380,11400,37.04,30,10932.6,467.39999999999964
sync_net,1,18:11:52,2,1,2,190,1900,28.77,10,4081.2,-2181.2
sync_net,1,18:11:52,3,2,2,0,0,21.48,20,0,0
""
sync_net,1,18:11:52,0,8,1,400,16000,38.89,40,12196,3804
sync_net,1,18:11:52,1,7,1,380,11400,30.49,30,7881.2,3518.8
sync_net,1,18:11:52,2,6,1,190,3800,20.74,20,1877.2,1922.8
sync_net,1,18:11:52,3,5,1,0,0,9.88,10,0,0
""
sync_net,1,18:11:53,0,4,2,400,16000,40.12,40,14816,1184
sync_net,1,18:11:53,1,3,2,380,11400,37.04,30,10932.6,467.39999999999964
sync_net,1,18:11:53,2,1,2,190,1900,28.77,10,4081.2,-2181.2
sync_net,1,18:11:53,3,2,2,0,0,21.48,20,0,0
""
sync_net,1,18:11:53,0,8,1,400,16000,38.89,40,12196,3804
sync_net,1,18:11:53,1,7,1,380,11400,30.49,30,7881.2,3518.8
sync_net,1,18:11:53,2,6,1,190,3800,20.74,20,1877.2,1922.8
sync_net,1,18:11:53,3,5,1,0,0,9.88,10,0,0
""
sync_net,1,18:11:54,0,4,2,400,16000,40.12,40,14816,1184
sync_net,1,18:11:54,1,3,2,380,11400,37.04,30,10932.6,467.39999999999964
sync_net,1,18:11:54,2,1,2,190,1900,28.77,10,4081.2,-2181.2
sync_net,1,18:11:54,3,2,2,0,0,21.48,20,0,0
""
sync_net,1,18:11:54,0,8,1,400,16000,38.89,40,12196,3804
sync_net,1,18:11:54,1,7,1,380,11400,30.49,30,7881.2,3518.8
sync_net,1,18:11:54,2,6,1,190,3800,20.74,20,1877.2,1922.8
sync_net,1,18:11:54,3,5,1,0,0,9.88,10,0,0
""
sync_net,1,18:11:56,0,4,2,400,16000,40.12,40,14816,1184
sync_net,1,18:11:56,1,3,2,380,11400,37.04,30,10932.6,467.39999999999964
sync_net,1,18:11:56,2,1,2,190,1900,28.77,10,4081.2,-2181.2
sync_net,1,18:11:56,3,2,2,0,0,21.48,20,0,0
""
sync_net,1,18:11:56,0,8,1,400,16000,38.89,40,12196,3804
sync_net,1,18:11:56,1,7,1,380,11400,30.49,30,7881.2,3518.8
sync_net,1,18:11:56,2,6,1,190,3800,20.74,20,1877.2,1922.8
sync_net,1,18:11:56,3,5,1,0,0,9.88,10,0,0
""
sync_net,1,18:11:57,0,8,1,400,16000,38.89,40,12196,3804
sync_net,1,18:11:57,1,7,1,380,11400,30.49,30,7881.2,3518.8
sync_net,1,18:11:57,2,6,1,190,3800,20.74,20,1877.2,1922.8
sync_net,1,18:11:57,3,5,1,0,0,9.88,10,0,0
""
sync_net,1,18:11:57,0,4,2,400,16000,40.12,40,14816,1184
sync_net,1,18:11:57,1,3,2,380,11400,37.04,30,10932.6,467.39999999999964
sync_net,1,18:11:57,2,1,2,190,1900,28.77,10,4081.2,-2181.2
sync_net,1,18:11:57,3,2,2,0,0,21.48,20,0,0
""
sync_net,1,18:11:58,0,8,1,400,16000,38.89,40,12196,3804
sync_net,1,18:11:58,1,7,1,380,11400,30.49,30,7881.2,3518.8
sync_net,1,18:11:58,2,6,1,190,3800,20.74,20,1877.2,1922.8
sync_net,1,18:11:58,3,5,1,0,0,9.88,10,0,0
""
sync_net,1,18:11:58,0,4,2,400,16000,40.12,40,14816,1184
sync_net,1,18:11:58,1,3,2,380,11400,37.04,30,10932.6,467.39999999999964
sync_net,1,18:11:58,2,1,2,190,1900,28.77,10,4081.2,-2181.2
sync_net,1,18:11:58,3,2,2,0,0,21.48,20,0,0
""
sync_net,1,18:11:59,0,8,1,400,16000,38.89,40,12196,3804
sync_net,1,18:11:59,1,7,1,380,11400,30.49,30,7881.2,3518.8
sync_net,1,18:11:59,2,6,1,190,3800,20.74,20,1877.2,1922.8
sync_net,1,18:11:59,3,5,1,0,0,9.88,10,0,0
""
sync_net,1,18:11:59,0,4,2,400,16000,40.12,40,14816,1184
sync_net,1,18:11:59,1,3,2,380,11400,37.04,30,10932.6,467.39999999999964
sync_net,1,18:11:59,2,1,2,190,1900,28.77,10,4081.2,-2181.2
sync_net,1,18:11:59,3,2,2,0,0,21.48,20,0,0
""
sync_net,1,18:12:00,0,8,1,400,16000,38.89,40,12196,3804
sync_net,1,18:12:00,1,7,1,380,11400,17.41,30,7881.2,3518.8
sync_net,1,18:12:00,2,6,1,190,3800,20.74,20,1877.2,1922.8
sync_net,1,18:12:00,3,5,1,0,0,9.88,10,0,0
""
sync_net,1,18:12:00,0,4,2,400,16000,40.12,40,14816,1184
sync_net,1,18:12:00,1,3,2,380,11400,37.04,30,10932.6,467.39999999999964
sync_net,1,18:12:00,2,1,2,190,1900,28.77,10,4081.2,-2181.2
sync_net,1,18:12:00,3,2,2,0,0,21.48,20,0,0
""
sync_net,1,18:12:01,0,8,1,400,16000,38.89,40,8296,7704
sync_net,1,18:12:01,1,6,1,380,7600,20.74,20,6615.8,984.1999999999998
sync_net,1,18:12:01,2,7,1,190,5700,17.41,30,1877.2,3822.8
sync_net,1,18:12:01,3,5,1,0,0,9.88,10,0,0
""
sync_net,1,18:12:01,0,4,2,400,16000,40.12,40,14816,1184
sync_net,1,18:12:01,1,3,2,380,11400,37.04,30,10932.6,467.39999999999964
sync_net,1,18:12:01,2,1,2,190,1900,28.77,10,4081.2,-2181.2
sync_net,1,18:12:01,3,2,2,0,0,21.48,20,0,0
""
sync_net,1,18:12:02,0,8,1,400,16000,38.89,40,8296,7704
sync_net,1,18:12:02,1,6,1,380,7600,20.74,20,6615.8,984.1999999999998
sync_net,1,18:12:02,2,7,1,190,5700,17.41,30,1877.2,3822.8
sync_net,1,18:12:02,3,5,1,0,0,9.88,10,0,0
""
sync_net,1,18:12:03,0,4,2,400,16000,40.12,40,14816,1184
sync_net,1,18:12:03,1,3,2,380,11400,37.04,30,10932.6,467.39999999999964
sync_net,1,18:12:03,2,1,2,190,1900,28.77,10,4081.2,-2181.2
sync_net,1,18:12:03,3,2,2,0,0,21.48,20,0,0
""
sync_net,1,18:12:03,0,8,1,400,16000,38.89,40,8296,7704
sync_net,1,18:12:03,1,6,1,380,7600,20.74,20,6615.8,984.1999999999998
sync_net,1,18:12:03,2,7,1,190,5700,17.41,30,1877.2,3822.8
sync_net,1,18:12:03,3,5,1,0,0,9.88,10,0,0
""
sync_net,1,18:12:04,0,4,2,400,16000,40.12,40,14816,1184
sync_net,1,18:12:04,1,3,2,380,11400,37.04,30,10932.6,467.39999999999964
sync_net,1,18:12:04,2,1,2,190,1900,28.77,10,4081.2,-2181.2
sync_net,1,18:12:04,3,2,2,0,0,21.48,20,0,0
""
sync_net,1,18:12:05,0,8,1,400,16000,38.89,40,8296,7704
sync_net,1,18:12:05,1,6,1,380,7600,20.74,20,6615.8,984.1999999999998
sync_net,1,18:12:05,2,7,1,190,5700,16.91,30,1877.2,3822.8
sync_net,1,18:12:05,3,5,1,0,0,9.88,10,0,0
""
sync_net,1,18:12:05,0,4,2,400,16000,40.12,40,14816,1184
sync_net,1,18:12:05,1,3,2,380,11400,37.04,30,10932.6,467.39999999999964
sync_net,1,18:12:05,2,1,2,190,1900,28.77,10,4081.2,-2181.2
sync_net,1,18:12:05,3,2,2,0,0,21.48,20,0,0
""
sync_net,1,18:12:06,0,8,1,400,16000,38.89,40,8296,7704
sync_net,1,18:12:06,1,6,1,380,7600,20.74,20,6425.8,1174.1999999999998
sync_net,1,18:12:06,2,7,1,190,5700,16.91,30,1877.2,3822.8
sync_net,1,18:12:06,3,5,1,0,0,9.88,10,0,0
""
sync_net,1,18:12:06,0,4,2,400,16000,40.12,40,14816,1184
sync_net,1,18:12:06,1,3,2,380,11400,37.04,30,10932.6,467.39999999999964
sync_net,1,18:12:06,2,1,2,190,1900,28.77,10,4081.2,-2181.2
sync_net,1,18:12:06,3,2,2,0,0,21.48,20,0,0
""
sync_net,1,18:12:07,0,8,1,400,16000,38.89,40,8296,7704
sync_net,1,18:12:07,1,6,1,380,7600,20.74,20,6425.8,1174.1999999999998
sync_net,1,18:12:07,2,7,1,190,5700,16.91,30,1877.2,3822.8
sync_net,1,18:12:07,3,5,1,0,0,9.88,10,0,0
""
sync_net,1,18:12:07,0,4,2,400,16000,40.12,40,14816,1184
sync_net,1,18:12:07,1,3,2,380,11400,37.04,30,10932.6,467.39999999999964
sync_net,1,18:12:07,2,1,2,190,1900,28.77,10,4081.2,-2181.2
sync_net,1,18:12:07,3,2,2,0,0,21.48,20,0,0
""
sync_net,1,18:12:08,0,8,1,400,16000,38.89,40,8296,7704
sync_net,1,18:12:08,1,6,1,380,7600,20.74,20,6425.8,1174.1999999999998
sync_net,1,18:12:08,2,7,1,190,5700,16.91,30,1877.2,3822.8
sync_net,1,18:12:08,3,5,1,0,0,9.88,10,0,0
""
sync_net,1,18:12:09,0,4,2,400,16000,40.12,40,14816,1184
sync_net,1,18:12:09,1,3,2,380,11400,37.04,30,10932.6,467.39999999999964
sync_net,1,18:12:09,2,1,2,190,1900,28.77,10,4081.2,-2181.2
sync_net,1,18:12:09,3,2,2,0,0,21.48,20,0,0
""
sync_net,1,18:12:09,0,8,1,400,16000,38.89,40,8296,7704
sync_net,1,18:12:09,1,6,1,380,7600,20.74,20,6425.8,1174.1999999999998
sync_net,1,18:12:09,2,7,1,190,5700,16.91,30,1877.2,3822.8
sync_net,1,18:12:09,3,5,1,0,0,9.88,10,0,0
""
sync_net,1,18:12:10,0,4,2,400,16000,40.12,40,14816,1184
sync_net,1,18:12:10,1,3,2,380,11400,37.04,30,10932.6,467.39999999999964
sync_net,1,18:12:10,2,1,2,190,1900,28.77,10,4081.2,-2181.2
sync_net,1,18:12:10,3,2,2,0,0,21.48,20,0,0
""
sync_net,1,18:12:10,0,8,1,400,16000,38.89,40,8296,7704
sync_net,1,18:12:10,1,6,1,380,7600,20.74,20,6425.8,1174.1999999999998
sync_net,1,18:12:10,2,7,1,190,5700,16.91,30,1877.2,3822.8
sync_net,1,18:12:10,3,5,1,0,0,9.88,10,0,0
""
sync_net,1,18:12:11,0,4,2,400,16000,40.12,40,14816,1184
sync_net,1,18:12:11,1,3,2,380,11400,37.04,30,10932.6,467.39999999999964
sync_net,1,18:12:11,2,1,2,190,1900,28.77,10,4081.2,-2181.2
sync_net,1,18:12:11,3,2,2,0,0,21.48,20,0,0
""
sync_net,1,18:12:11,0,8,1,400,16000,38.89,40,8296,7704
sync_net,1,18:12:11,1,6,1,380,7600,20.74,20,6425.8,1174.1999999999998
sync_net,1,18:12:11,2,7,1,190,5700,16.91,30,1877.2,3822.8
sync_net,1,18:12:11,3,5,1,0,0,9.88,10,0,0
""
sync_net,1,18:12:12,0,4,2,400,16000,40.12,40,14816,1184
sync_net,1,18:12:12,1,3,2,380,11400,37.04,30,10932.6,467.39999999999964
sync_net,1,18:12:12,2,1,2,190,1900,28.77,10,4081.2,-2181.2
sync_net,1,18:12:12,3,2,2,0,0,21.48,20,0,0
""
sync_net,1,18:12:12,0,8,1,400,16000,38.89,40,8296,7704
sync_net,1,18:12:12,1,6,1,380,7600,20.74,20,6425.8,1174.1999999999998
sync_net,1,18:12:12,2,7,1,190,5700,16.91,30,1877.2,3822.8
sync_net,1,18:12:12,3,5,1,0,0,9.88,10,0,0
""
sync_net,1,18:12:13,0,4,2,400,16000,40.12,40,14816,1184
sync_net,1,18:12:13,1,3,2,380,11400,37.04,30,10932.6,467.39999999999964
sync_net,1,18:12:13,2,1,2,190,1900,28.77,10,4081.2,-2181.2
sync_net,1,18:12:13,3,2,2,0,0,21.48,20,0,0
""
sync_net,1,18:12:14,0,8,1,400,16000,38.89,40,8296,7704
sync_net,1,18:12:14,1,6,1,380,7600,20.74,20,6425.8,1174.1999999999998
sync_net,1,18:12:14,2,7,1,190,5700,16.91,30,1877.2,3822.8
sync_net,1,18:12:14,3,5,1,0,0,9.88,10,0,0
""
sync_net,1,18:12:14,0,4,2,400,16000,40.12,40,14816,1184
sync_net,1,18:12:14,1,3,2,380,11400,37.04,30,10932.6,467.39999999999964
sync_net,1,18:12:14,2,1,2,190,1900,28.77,10,4081.2,-2181.2
sync_net,1,18:12:14,3,2,2,0,0,21.48,20,0,0
""
sync_net,1,18:12:15,0,8,1,400,16000,38.89,40,8296,7704
sync_net,1,18:12:15,1,6,1,380,7600,20.74,20,6425.8,1174.1999999999998
sync_net,1,18:12:15,2,7,1,190,5700,16.91,30,1877.2,3822.8
sync_net,1,18:12:15,3,5,1,0,0,9.88,10,0,0
""
sync_net,1,18:12:16,0,4,2,400,16000,40.12,40,14816,1184
sync_net,1,18:12:16,1,3,2,380,11400,37.04,30,10932.6,467.39999999999964
sync_net,1,18:12:16,2,1,2,190,1900,28.77,10,4081.2,-2181.2
sync_net,1,18:12:16,3,2,2,0,0,21.48,20,0,0
""
sync_net,1,18:12:16,0,8,1,400,16000,38.89,40,8296,7704
sync_net,1,18:12:16,1,6,1,380,7600,20.74,20,6425.8,1174.1999999999998
sync_net,1,18:12:16,2,7,1,190,5700,16.91,30,1877.2,3822.8
sync_net,1,18:12:16,3,5,1,0,0,9.88,10,0,0
""
sync_net,1,18:12:17,0,4,2,400,16000,40.12,40,14816,1184
sync_net,1,18:12:17,1,3,2,380,11400,37.04,30,10932.6,467.39999999999964
sync_net,1,18:12:17,2,1,2,190,1900,28.77,10,4081.2,-2181.2
sync_net,1,18:12:17,3,2,2,0,0,21.48,20,0,0
""
sync_net,1,18:12:17,0,8,1,400,16000,38.89,40,8296,7704
sync_net,1,18:12:17,1,6,1,380,7600,20.74,20,6425.8,1174.1999999999998
sync_net,1,18:12:17,2,7,1,190,5700,16.91,30,1877.2,3822.8
sync_net,1,18:12:17,3,5,1,0,0,9.88,10,0,0
""
sync_net,1,18:12:18,0,4,2,400,16000,40.12,40,14816,1184
sync_net,1,18:12:18,1,3,2,380,11400,37.04,30,10932.6,467.39999999999964
sync_net,1,18:12:18,2,1,2,190,1900,28.77,10,4081.2,-2181.2
sync_net,1,18:12:18,3,2,2,0,0,21.48,20,0,0
""
sync_net,1,18:12:18,0,8,1,400,16000,38.89,40,8296,7704
sync_net,1,18:12:18,1,6,1,380,7600,20.74,20,6425.8,1174.1999999999998
sync_net,1,18:12:18,2,7,1,190,5700,16.91,30,1877.2,3822.8
sync_net,1,18:12:18,3,5,1,0,0,9.88,10,0,0
""
sync_net,1,18:12:19,0,4,2,400,16000,40.12,40,14816,1184
sync_net,1,18:12:19,1,3,2,380,11400,37.04,30,10932.6,467.39999999999964
sync_net,1,18:12:19,2,1,2,190,1900,28.77,10,4081.2,-2181.2
sync_net,1,18:12:19,3,2,2,0,0,21.48,20,0,0
""
sync_net,1,18:12:19,0,8,1,400,16000,38.89,40,8296,7704
sync_net,1,18:12:19,1,6,1,380,7600,20.74,20,6425.8,1174.1999999999998
sync_net,1,18:12:19,2,7,1,190,5700,16.91,30,1877.2,3822.8
sync_net,1,18:12:19,3,5,1,0,0,9.88,10,0,0
""
sync_net,1,18:12:20,0,4,2,400,16000,40.12,40,14816,1184
sync_net,1,18:12:20,1,3,2,380,11400,37.04,30,10932.6,467.39999999999964
sync_net,1,18:12:20,2,1,2,190,1900,28.77,10,4081.2,-2181.2
sync_net,1,18:12:20,3,2,2,0,0,21.48,20,0,0
""
sync_net,1,18:12:20,0,8,1,400,16000,38.89,40,8296,7704
sync_net,1,18:12:20,1,6,1,380,7600,20.74,20,6425.8,1174.1999999999998
sync_net,1,18:12:20,2,7,1,190,5700,16.91,30,1877.2,3822.8
sync_net,1,18:12:20,3,5,1,0,0,9.88,10,0,0
""
sync_net,1,18:12:21,0,4,2,400,16000,40.12,40,14816,1184
sync_net,1,18:12:21,1,3,2,380,11400,37.04,30,10932.6,467.39999999999964
sync_net,1,18:12:21,2,1,2,190,1900,28.77,10,4081.2,-2181.2
sync_net,1,18:12:21,3,2,2,0,0,21.48,20,0,0
""
sync_net,1,18:12:22,0,8,1,400,16000,38.89,40,8296,7704
sync_net,1,18:12:22,1,6,1,380,7600,20.74,20,6425.8,1174.1999999999998
sync_net,1,18:12:22,2,7,1,190,5700,16.91,30,1877.2,3822.8
sync_net,1,18:12:22,3,5,1,0,0,9.88,10,0,0
""
sync_net,1,18:12:23,0,4,2,400,16000,40.12,40,14816,1184
sync_net,1,18:12:23,1,3,2,380,11400,37.04,30,10932.6,467.39999999999964
sync_net,1,18:12:23,2,1,2,190,1900,28.77,10,4081.2,-2181.2
sync_net,1,18:12:23,3,2,2,0,0,21.48,20,0,0
""
sync_net,1,18:12:23,0,8,1,400,16000,38.89,40,8296,7704
sync_net,1,18:12:23,1,6,1,380,7600,20.74,20,6425.8,1174.1999999999998
sync_net,1,18:12:23,2,7,1,190,5700,16.91,30,1877.2,3822.8
sync_net,1,18:12:23,3,5,1,0,0,9.88,10,0,0
""
sync_net,1,18:12:24,0,4,2,400,16000,40.12,40,14816,1184
sync_net,1,18:12:24,1,3,2,380,11400,37.04,30,10932.6,467.39999999999964
sync_net,1,18:12:24,2,1,2,190,1900,28.77,10,4081.2,-2181.2
sync_net,1,18:12:24,3,2,2,0,0,21.48,20,0,0
""
sync_net,1,18:12:24,0,8,1,400,16000,38.89,40,8296,7704
sync_net,1,18:12:24,1,6,1,380,7600,20.74,20,6425.8,1174.1999999999998
sync_net,1,18:12:24,2,7,1,190,5700,16.91,30,1877.2,3822.8
sync_net,1,18:12:24,3,5,1,0,0,9.88,10,0,0
""
sync_net,1,18:12:25,0,4,2,400,16000,40.12,40,14816,1184
sync_net,1,18:12:25,1,3,2,380,11400,37.04,30,10932.6,467.39999999999964
sync_net,1,18:12:25,2,1,2,190,1900,28.77,10,4081.2,-2181.2
sync_net,1,18:12:25,3,2,2,0,0,21.48,20,0,0
""
sync_net,1,18:12:25,0,8,1,400,16000,38.89,40,8296,7704
sync_net,1,18:12:25,1,6,1,380,7600,20.74,20,6425.8,1174.1999999999998
sync_net,1,18:12:25,2,7,1,190,5700,16.91,30,1877.2,3822.8
sync_net,1,18:12:25,3,5,1,0,0,9.88,10,0,0
""
sync_net,1,18:12:26,0,4,2,400,16000,40.12,40,14816,1184
sync_net,1,18:12:26,1,3,2,380,11400,37.04,30,10932.6,467.39999999999964
sync_net,1,18:12:26,2,1,2,190,1900,28.77,10,4081.2,-2181.2
sync_net,1,18:12:26,3,2,2,0,0,21.48,20,0,0
""
sync_net,1,18:12:26,0,8,1,400,16000,38.89,40,8296,7704
sync_net,1,18:12:26,1,6,1,380,7600,20.74,20,6425.8,1174.1999999999998
sync_net,1,18:12:26,2,7,1,190,5700,16.91,30,1877.2,3822.8
sync_net,1,18:12:26,3,5,1,0,0,9.88,10,0,0
""
sync_net,1,18:12:27,0,4,2,400,16000,40.12,40,14816,1184
sync_net,1,18:12:27,1,3,2,380,11400,37.04,30,10932.6,467.39999999999964
sync_net,1,18:12:27,2,1,2,190,1900,28.77,10,4081.2,-2181.2
sync_net,1,18:12:27,3,2,2,0,0,21.48,20,0,0
""
sync_net,1,18:12:27,0,8,1,400,16000,38.89,40,8296,7704
sync_net,1,18:12:27,1,6,1,380,7600,20.74,20,6425.8,1174.1999999999998
sync_net,1,18:12:27,2,7,1,190,5700,16.91,30,1877.2,3822.8
sync_net,1,18:12:27,3,5,1,0,0,9.88,10,0,0
""
sync_net,1,18:12:28,0,4,2,400,16000,37.04,40,14816,1184
sync_net,1,18:12:28,1,3,2,380,11400,37.04,30,10932.6,467.39999999999964
sync_net,1,18:12:28,2,1,2,190,1900,28.77,10,4081.2,-2181.2
sync_net,1,18:12:28,3,2,2,0,0,21.48,20,0,0
""
sync_net,1,18:12:28,0,8,1,400,16000,38.89,40,8296,7704
sync_net,1,18:12:28,1,6,1,380,7600,20.74,20,6425.8,1174.1999999999998
sync_net,1,18:12:28,2,7,1,190,5700,16.91,30,1877.2,3822.8
sync_net,1,18:12:28,3,5,1,0,0,9.88,10,0,0
""
sync_net,1,18:12:30,0,4,2,400,16000,37.04,40,14816,1184
sync_net,1,18:12:30,1,3,2,380,11400,37.04,30,10932.6,467.39999999999964
sync_net,1,18:12:30,2,1,2,190,1900,28.77,10,4081.2,-2181.2
sync_net,1,18:12:30,3,2,2,0,0,21.48,20,0,0
""
sync_net,1,18:12:30,0,8,1,400,16000,38.89,40,8296,7704
sync_net,1,18:12:30,1,6,1,380,7600,20.74,20,6425.8,1174.1999999999998
sync_net,1,18:12:30,2,7,1,190,5700,16.91,30,1877.2,3822.8
sync_net,1,18:12:30,3,5,1,0,0,9.88,10,0,0
""
sync_net,1,18:12:31,0,4,2,400,16000,37.04,40,14816,1184
sync_net,1,18:12:31,1,3,2,380,11400,37.04,30,10932.6,467.39999999999964
sync_net,1,18:12:31,2,1,2,190,1900,28.77,10,4081.2,-2181.2
sync_net,1,18:12:31,3,2,2,0,0,21.48,20,0,0
""
sync_net,1,18:12:31,0,8,1,400,16000,38.89,40,8296,7704
sync_net,1,18:12:31,1,6,1,380,7600,20.74,20,6425.8,1174.1999999999998
sync_net,1,18:12:31,2,7,1,190,5700,16.91,30,1877.2,3822.8
sync_net,1,18:12:31,3,5,1,0,0,9.88,10,0,0
""
sync_net,1,18:12:32,0,4,2,400,16000,37.04,40,14816,1184
sync_net,1,18:12:32,1,3,2,380,11400,37.04,30,10932.6,467.39999999999964
sync_net,1,18:12:32,2,1,2,190,1900,28.77,10,4081.2,-2181.2
sync_net,1,18:12:32,3,2,2,0,0,21.48,20,0,0
""
sync_net,1,18:12:32,0,8,1,400,16000,38.89,40,8296,7704
sync_net,1,18:12:32,1,6,1,380,7600,20.74,20,6425.8,1174.1999999999998
sync_net,1,18:12:32,2,7,1,190,5700,16.91,30,1877.2,3822.8
sync_net,1,18:12:32,3,5,1,0,0,9.88,10,0,0
""
sync_net,1,18:12:33,0,4,2,400,16000,37.04,40,14816,1184
sync_net,1,18:12:33,1,3,2,380,11400,37.04,30,10932.6,467.39999999999964
sync_net,1,18:12:33,2,1,2,190,1900,28.77,10,4081.2,-2181.2
sync_net,1,18:12:33,3,2,2,0,0,21.48,20,0,0
""
sync_net,1,18:12:33,0,8,1,400,16000,38.89,40,8296,7704
sync_net,1,18:12:33,1,6,1,380,7600,20.74,20,6425.8,1174.1999999999998
sync_net,1,18:12:33,2,7,1,190,5700,16.91,30,1877.2,3822.8
sync_net,1,18:12:33,3,5,1,0,0,9.88,10,0,0
""
sync_net,1,18:12:34,0,4,2,400,16000,37.03,40,14816,1184
sync_net,1,18:12:34,1,3,2,380,11400,37.04,30,10932.6,467.39999999999964
sync_net,1,18:12:34,2,1,2,190,1900,28.77,10,4081.2,-2181.2
sync_net,1,18:12:34,3,2,2,0,0,21.48,20,0,0
""
sync_net,1,18:12:34,0,8,1,400,16000,38.89,40,8296,7704
sync_net,1,18:12:34,1,6,1,380,7600,20.74,20,6425.8,1174.1999999999998
sync_net,1,18:12:34,2,7,1,190,5700,16.91,30,1877.2,3822.8
sync_net,1,18:12:34,3,5,1,0,0,9.88,10,0,0
""
sync_net,1,18:12:35,0,8,1,400,16000,38.89,40,8296,7704
sync_net,1,18:12:35,1,6,1,380,7600,20.74,20,6425.8,1174.1999999999998
sync_net,1,18:12:35,2,7,1,190,5700,16.91,30,1877.2,3822.8
sync_net,1,18:12:35,3,5,1,0,0,9.88,10,0,0
""
sync_net,1,18:12:35,0,3,2,400,12000,37.04,30,14812,-2812
sync_net,1,18:12:35,1,4,2,380,15200,37.03,40,10932.6,4267.4
sync_net,1,18:12:35,2,1,2,190,1900,28.77,10,4081.2,-2181.2
sync_net,1,18:12:35,3,2,2,0,0,21.48,20,0,0
""
sync_net,1,18:12:36,0,8,1,400,16000,38.89,40,8296,7704
sync_net,1,18:12:36,1,6,1,380,7600,20.74,20,6425.8,1174.1999999999998
sync_net,1,18:12:36,2,7,1,190,5700,16.91,30,1877.2,3822.8
sync_net,1,18:12:36,3,5,1,0,0,9.88,10,0,0
""
sync_net,1,18:12:37,0,3,2,400,12000,37.04,30,14812,-2812
sync_net,1,18:12:37,1,4,2,380,15200,37.03,40,10932.6,4267.4
sync_net,1,18:12:37,2,1,2,190,1900,28.77,10,4081.2,-2181.2
sync_net,1,18:12:37,3,2,2,0,0,21.48,20,0,0
""
sync_net,1,18:12:38,0,8,1,400,16000,38.89,40,8296,7704
sync_net,1,18:12:38,1,6,1,380,7600,20.74,20,6425.8,1174.1999999999998
sync_net,1,18:12:38,2,7,1,190,5700,16.91,30,1877.2,3822.8
sync_net,1,18:12:38,3,5,1,0,0,9.88,10,0,0
""
sync_net,1,18:12:38,0,3,2,400,12000,37.04,30,14812,-2812
sync_net,1,18:12:38,1,4,2,380,15200,37.03,40,10932.6,4267.4
sync_net,1,18:12:38,2,1,2,190,1900,28.77,10,4081.2,-2181.2
sync_net,1,18:12:38,3,2,2,0,0,21.48,20,0,0
""
sync_net,1,18:12:39,0,8,1,400,16000,38.89,40,8296,7704
sync_net,1,18:12:39,1,6,1,380,7600,20.74,20,6425.8,1174.1999999999998
sync_net,1,18:12:39,2,7,1,190,5700,16.91,30,1877.2,3822.8
sync_net,1,18:12:39,3,5,1,0,0,9.88,10,0,0
""
sync_net,1,18:12:39,0,3,2,400,12000,37.04,30,14812,-2812
sync_net,1,18:12:39,1,4,2,380,15200,37.03,40,10932.6,4267.4
sync_net,1,18:12:39,2,1,2,190,1900,28.77,10,4081.2,-2181.2
sync_net,1,18:12:39,3,2,2,0,0,21.48,20,0,0
""
sync_net,1,18:12:40,0,8,1,400,16000,38.89,40,8296,7704
sync_net,1,18:12:40,1,6,1,380,7600,20.74,20,6425.8,1174.1999999999998
sync_net,1,18:12:40,2,7,1,190,5700,16.91,30,1877.2,3822.8
sync_net,1,18:12:40,3,5,1,0,0,9.88,10,0,0
""
sync_net,1,18:12:40,0,3,2,400,12000,37.04,30,14812,-2812
sync_net,1,18:12:40,1,4,2,380,15200,37.03,40,10932.6,4267.4
sync_net,1,18:12:40,2,1,2,190,1900,28.77,10,4081.2,-2181.2
sync_net,1,18:12:40,3,2,2,0,0,21.48,20,0,0
""
sync_net,1,18:12:41,0,8,1,400,16000,38.89,40,8296,7704
sync_net,1,18:12:41,1,6,1,380,7600,20.74,20,6425.8,1174.1999999999998
sync_net,1,18:12:41,2,7,1,190,5700,16.91,30,1877.2,3822.8
sync_net,1,18:12:41,3,5,1,0,0,9.88,10,0,0
""
sync_net,1,18:12:41,0,3,2,400,12000,37.04,30,14812,-2812
sync_net,1,18:12:41,1,4,2,380,15200,37.03,40,10932.6,4267.4
sync_net,1,18:12:41,2,1,2,190,1900,28.77,10,4081.2,-2181.2
sync_net,1,18:12:41,3,2,2,0,0,21.48,20,0,0
""
sync_net,1,18:12:42,0,8,1,400,16000,38.89,40,8296,7704
sync_net,1,18:12:42,1,6,1,380,7600,20.74,20,6425.8,1174.1999999999998
sync_net,1,18:12:42,2,7,1,190,5700,16.91,30,1877.2,3822.8
sync_net,1,18:12:42,3,5,1,0,0,9.88,10,0,0
""
sync_net,1,18:12:42,0,3,2,400,12000,37.04,30,14812,-2812
sync_net,1,18:12:42,1,4,2,380,15200,37.03,40,10932.6,4267.4
sync_net,1,18:12:42,2,1,2,190,1900,28.77,10,4081.2,-2181.2
sync_net,1,18:12:42,3,2,2,0,0,21.48,20,0,0
""
sync_net,1,18:12:43,0,8,1,400,16000,38.89,40,8296,7704
sync_net,1,18:12:43,1,6,1,380,7600,20.74,20,6425.8,1174.1999999999998
sync_net,1,18:12:43,2,7,1,190,5700,16.91,30,1877.2,3822.8
sync_net,1,18:12:43,3,5,1,0,0,9.88,10,0,0
""
sync_net,1,18:12:44,0,3,2,400,12000,37.04,30,14812,-2812
sync_net,1,18:12:44,1,4,2,380,15200,37.03,40,10932.6,4267.4
sync_net,1,18:12:44,2,1,2,190,1900,28.77,10,4081.2,-2181.2
sync_net,1,18:12:44,3,2,2,0,0,21.48,20,0,0
""
sync_net,1,18:12:44,0,8,1,400,16000,38.89,40,8296,7704
sync_net,1,18:12:44,1,6,1,380,7600,20.74,20,6425.8,1174.1999999999998
sync_net,1,18:12:44,2,7,1,190,5700,16.91,30,1877.2,3822.8
sync_net,1,18:12:44,3,5,1,0,0,9.88,10,0,0
""
sync_net,1,18:12:45,0,3,2,400,12000,37.04,30,14812,-2812
sync_net,1,18:12:45,1,4,2,380,15200,37.03,40,10932.6,4267.4
sync_net,1,18:12:45,2,1,2,190,1900,28.77,10,4081.2,-2181.2
sync_net,1,18:12:45,3,2,2,0,0,21.48,20,0,0
""
sync_net,1,18:12:45,0,8,1,400,16000,38.89,40,8296,7704
sync_net,1,18:12:45,1,6,1,380,7600,20.74,20,6425.8,1174.1999999999998
sync_net,1,18:12:45,2,7,1,190,5700,16.91,30,1877.2,3822.8
sync_net,1,18:12:45,3,5,1,0,0,9.88,10,0,0
""
sync_net,1,18:12:46,0,3,2,400,12000,37.04,30,14812,-2812
sync_net,1,18:12:46,1,4,2,380,15200,37.03,40,10932.6,4267.4
sync_net,1,18:12:46,2,1,2,190,1900,28.77,10,4081.2,-2181.2
sync_net,1,18:12:46,3,2,2,0,0,21.48,20,0,0
""
sync_net,1,18:12:47,0,8,1,400,16000,38.89,40,8296,7704
sync_net,1,18:12:47,1,6,1,380,7600,20.74,20,6425.8,1174.1999999999998
sync_net,1,18:12:47,2,7,1,190,5700,16.91,30,1877.2,3822.8
sync_net,1,18:12:47,3,5,1,0,0,9.88,10,0,0
""
sync_net,1,18:12:47,0,3,2,400,12000,37.04,30,14812,-2812
sync_net,1,18:12:47,1,4,2,380,15200,34.69,40,10932.6,4267.4
sync_net,1,18:12:47,2,1,2,190,1900,28.77,10,4081.2,-2181.2
sync_net,1,18:12:47,3,2,2,0,0,21.48,20,0,0
""
sync_net,1,18:12:48,0,8,1,400,16000,38.89,40,8296,7704
sync_net,1,18:12:48,1,6,1,380,7600,20.74,20,6425.8,1174.1999999999998
sync_net,1,18:12:48,2,7,1,190,5700,16.91,30,1877.2,3822.8
sync_net,1,18:12:48,3,5,1,0,0,9.88,10,0,0
""
sync_net,1,18:12:48,0,3,2,400,12000,37.04,30,13876,-1876
sync_net,1,18:12:48,1,4,2,380,15200,34.69,40,10932.6,4267.4
sync_net,1,18:12:48,2,1,2,190,1900,28.77,10,4081.2,-2181.2
sync_net,1,18:12:48,3,2,2,0,0,21.48,20,0,0
""
sync_net,1,18:12:49,0,8,1,400,16000,38.89,40,8296,7704
sync_net,1,18:12:49,1,6,1,380,7600,20.74,20,6425.8,1174.1999999999998
sync_net,1,18:12:49,2,7,1,190,5700,16.91,30,1877.2,3822.8
sync_net,1,18:12:49,3,5,1,0,0,9.88,10,0,0
""
sync_net,1,18:12:49,0,3,2,400,12000,37.04,30,13876,-1876
sync_net,1,18:12:49,1,4,2,380,15200,37.9,40,10932.6,4267.4
sync_net,1,18:12:49,2,1,2,190,1900,28.77,10,4081.2,-2181.2
sync_net,1,18:12:49,3,2,2,0,0,21.48,20,0,0
""
sync_net,1,18:12:50,0,8,1,400,16000,38.89,40,8296,7704
sync_net,1,18:12:50,1,6,1,380,7600,20.74,20,6425.8,1174.1999999999998
sync_net,1,18:12:50,2,7,1,190,5700,16.91,30,1877.2,3822.8
sync_net,1,18:12:50,3,5,1,0,0,9.88,10,0,0
""
sync_net,1,18:12:51,0,4,2,400,16000,39.14,40,14816,1184
sync_net,1,18:12:51,1,3,2,380,11400,37.04,30,10932.6,467.39999999999964
sync_net,1,18:12:51,2,1,2,190,1900,28.77,10,4081.2,-2181.2
sync_net,1,18:12:51,3,2,2,0,0,21.48,20,0,0
""
sync_net,1,18:12:51,0,8,1,400,16000,38.89,40,8296,7704
sync_net,1,18:12:51,1,6,1,380,7600,20.74,20,6425.8,1174.1999999999998
sync_net,1,18:12:51,2,7,1,190,5700,16.91,30,1877.2,3822.8
sync_net,1,18:12:51,3,5,1,0,0,9.88,10,0,0
""
sync_net,1,18:12:52,0,4,2,400,16000,39.38,40,14816,1184
sync_net,1,18:12:52,1,3,2,380,11400,37.04,30,10932.6,467.39999999999964
sync_net,1,18:12:52,2,1,2,190,1900,28.77,10,4081.2,-2181.2
sync_net,1,18:12:52,3,2,2,0,0,21.48,20,0,0
""
sync_net,1,18:12:52,0,8,1,400,16000,38.89,40,8296,7704
sync_net,1,18:12:52,1,6,1,380,7600,20.74,20,6425.8,1174.1999999999998
sync_net,1,18:12:52,2,7,1,190,5700,16.91,30,1877.2,3822.8
sync_net,1,18:12:52,3,5,1,0,0,9.88,10,0,0
""
sync_net,1,18:12:53,0,4,2,400,16000,33.95,40,14816,1184
sync_net,1,18:12:53,1,3,2,380,11400,37.04,30,10932.6,467.39999999999964
sync_net,1,18:12:53,2,1,2,190,1900,28.77,10,4081.2,-2181.2
sync_net,1,18:12:53,3,2,2,0,0,21.48,20,0,0
""
sync_net,1,18:12:53,0,8,1,400,16000,30.74,40,8296,7704
sync_net,1,18:12:53,1,6,1,380,7600,20.74,20,6425.8,1174.1999999999998
sync_net,1,18:12:53,2,7,1,190,5700,16.91,30,1877.2,3822.8
sync_net,1,18:12:53,3,5,1,0,0,9.88,10,0,0
""
sync_net,1,18:12:54,0,3,2,400,12000,37.04,30,13580,-1580
sync_net,1,18:12:54,1,4,2,380,15200,33.95,40,10932.6,4267.4
sync_net,1,18:12:54,2,1,2,190,1900,28.77,10,4081.2,-2181.2
sync_net,1,18:12:54,3,2,2,0,0,21.48,20,0,0
""
sync_net,1,18:12:55,0,8,1,400,16000,30.74,40,8296,7704
sync_net,1,18:12:55,1,6,1,380,7600,20.74,20,6425.8,1174.1999999999998
sync_net,1,18:12:55,2,7,1,190,5700,16.91,30,1877.2,3822.8
sync_net,1,18:12:55,3,5,1,0,0,9.88,10,0,0
""
sync_net,1,18:12:55,0,3,2,400,12000,37.04,30,13580,-1580
sync_net,1,18:12:55,1,4,2,380,15200,33.95,40,10932.6,4267.4
sync_net,1,18:12:55,2,1,2,190,1900,28.77,10,4081.2,-2181.2
sync_net,1,18:12:55,3,2,2,0,0,21.48,20,0,0
""
sync_net,1,18:12:56,0,8,1,400,16000,19.38,40,8296,7704
sync_net,1,18:12:56,1,6,1,380,7600,20.74,20,6425.8,1174.1999999999998
sync_net,1,18:12:56,2,7,1,190,5700,16.91,30,1877.2,3822.8
sync_net,1,18:12:56,3,5,1,0,0,9.88,10,0,0
""
sync_net,1,18:12:56,0,3,2,400,12000,37.04,30,13580,-1580
sync_net,1,18:12:56,1,4,2,380,15200,33.95,40,10932.6,4267.4
sync_net,1,18:12:56,2,1,2,190,1900,28.77,10,4081.2,-2181.2
sync_net,1,18:12:56,3,2,2,0,0,21.48,20,0,0
""
sync_net,1,18:12:57,0,6,1,400,8000,20.74,20,7752,248
sync_net,1,18:12:57,1,8,1,380,15200,13.46,40,6425.8,8774.2
sync_net,1,18:12:57,2,7,1,190,5700,16.91,30,1877.2,3822.8
sync_net,1,18:12:57,3,5,1,0,0,9.88,10,0,0
""
sync_net,1,18:12:58,0,3,2,400,12000,37.04,30,13580,-1580
sync_net,1,18:12:58,1,4,2,380,15200,33.95,40,10932.6,4267.4
sync_net,1,18:12:58,2,1,2,190,1900,28.77,10,4081.2,-2181.2
sync_net,1,18:12:58,3,2,2,0,0,21.48,20,0,0
""
sync_net,1,18:12:58,0,6,1,400,8000,20.74,20,6764,1236
sync_net,1,18:12:58,1,7,1,380,11400,16.91,30,5114.8,6285.2
sync_net,1,18:12:58,2,8,1,190,7600,13.46,40,1877.2,5722.8
sync_net,1,18:12:58,3,5,1,0,0,9.88,10,0,0
""
sync_net,1,18:12:59,0,3,2,400,12000,37.04,30,13580,-1580
sync_net,1,18:12:59,1,4,2,380,15200,33.95,40,10932.6,4267.4
sync_net,1,18:12:59,2,1,2,190,1900,28.77,10,4081.2,-2181.2
sync_net,1,18:12:59,3,2,2,0,0,21.48,20,0,0
""
sync_net,1,18:12:59,0,6,1,400,8000,20.74,20,6764,1236
sync_net,1,18:12:59,1,7,1,380,11400,16.91,30,5114.8,6285.2
sync_net,1,18:12:59,2,8,1,190,7600,13.46,40,1877.2,5722.8
sync_net,1,18:12:59,3,5,1,0,0,9.88,10,0,0
""
sync_net,1,18:13:00,0,3,2,400,12000,37.04,30,13580,-1580
sync_net,1,18:13:00,1,4,2,380,15200,33.95,40,10932.6,4267.4
sync_net,1,18:13:00,2,1,2,190,1900,28.77,10,4081.2,-2181.2
sync_net,1,18:13:00,3,2,2,0,0,21.48,20,0,0
""
sync_net,1,18:13:00,0,6,1,400,8000,20.74,20,6764,1236
sync_net,1,18:13:00,1,7,1,380,11400,16.91,30,5114.8,6285.2
sync_net,1,18:13:00,2,8,1,190,7600,13.46,40,1877.2,5722.8
sync_net,1,18:13:00,3,5,1,0,0,9.88,10,0,0
""
sync_net,1,18:13:01,0,3,2,400,12000,37.04,30,13580,-1580
sync_net,1,18:13:01,1,4,2,380,15200,33.95,40,10932.6,4267.4
sync_net,1,18:13:01,2,1,2,190,1900,28.77,10,4081.2,-2181.2
sync_net,1,18:13:01,3,2,2,0,0,21.48,20,0,0
""
sync_net,1,18:13:01,0,6,1,400,8000,20.74,20,6764,1236
sync_net,1,18:13:01,1,7,1,380,11400,16.91,30,5114.8,6285.2
sync_net,1,18:13:01,2,8,1,190,7600,13.46,40,1877.2,5722.8
sync_net,1,18:13:01,3,5,1,0,0,9.88,10,0,0
""
sync_net,1,18:13:02,0,3,2,400,12000,37.04,30,13580,-1580
sync_net,1,18:13:02,1,4,2,380,15200,33.95,40,10932.6,4267.4
sync_net,1,18:13:02,2,1,2,190,1900,28.77,10,4081.2,-2181.2
sync_net,1,18:13:02,3,2,2,0,0,21.48,20,0,0
""
sync_net,1,18:13:03,0,6,1,400,8000,20.74,20,6764,1236
sync_net,1,18:13:03,1,7,1,380,11400,16.91,30,5114.8,6285.2
sync_net,1,18:13:03,2,8,1,190,7600,13.46,40,1877.2,5722.8
sync_net,1,18:13:03,3,5,1,0,0,9.88,10,0,0
""
sync_net,1,18:13:03,0,3,2,400,12000,37.04,30,13580,-1580
sync_net,1,18:13:03,1,4,2,380,15200,33.95,40,10932.6,4267.4
sync_net,1,18:13:03,2,1,2,190,1900,28.77,10,4081.2,-2181.2
sync_net,1,18:13:03,3,2,2,0,0,21.48,20,0,0
""
sync_net,1,18:13:04,0,6,1,400,8000,20.74,20,6764,1236
sync_net,1,18:13:04,1,7,1,380,11400,16.91,30,5114.8,6285.2
sync_net,1,18:13:04,2,8,1,190,7600,13.46,40,1877.2,5722.8
sync_net,1,18:13:04,3,5,1,0,0,9.88,10,0,0
""
sync_net,1,18:13:04,0,3,2,400,12000,37.04,30,13580,-1580
sync_net,1,18:13:04,1,4,2,380,15200,33.95,40,10932.6,4267.4
sync_net,1,18:13:04,2,1,2,190,1900,28.77,10,4081.2,-2181.2
sync_net,1,18:13:04,3,2,2,0,0,21.48,20,0,0
""
sync_net,1,18:13:05,0,6,1,400,8000,20.74,20,6764,1236
sync_net,1,18:13:05,1,7,1,380,11400,16.91,30,5114.8,6285.2
sync_net,1,18:13:05,2,8,1,190,7600,13.46,40,1877.2,5722.8
sync_net,1,18:13:05,3,5,1,0,0,9.88,10,0,0
""
sync_net,1,18:13:06,0,3,2,400,12000,37.04,30,13580,-1580
sync_net,1,18:13:06,1,4,2,380,15200,33.95,40,10932.6,4267.4
sync_net,1,18:13:06,2,1,2,190,1900,28.77,10,4081.2,-2181.2
sync_net,1,18:13:06,3,2,2,0,0,21.48,20,0,0
""
sync_net,1,18:13:06,0,6,1,400,8000,20.74,20,6764,1236
sync_net,1,18:13:06,1,7,1,380,11400,16.91,30,5114.8,6285.2
sync_net,1,18:13:06,2,8,1,190,7600,13.46,40,1877.2,5722.8
sync_net,1,18:13:06,3,5,1,0,0,9.88,10,0,0
""
sync_net,1,18:13:07,0,3,2,400,12000,37.04,30,13580,-1580
sync_net,1,18:13:07,1,4,2,380,15200,33.95,40,10932.6,4267.4
sync_net,1,18:13:07,2,1,2,190,1900,28.77,10,4081.2,-2181.2
sync_net,1,18:13:07,3,2,2,0,0,21.48,20,0,0
""
sync_net,1,18:13:07,0,6,1,400,8000,20.74,20,6764,1236
sync_net,1,18:13:07,1,7,1,380,11400,16.91,30,5114.8,6285.2
sync_net,1,18:13:07,2,8,1,190,7600,13.46,40,1877.2,5722.8
sync_net,1,18:13:07,3,5,1,0,0,9.88,10,0,0
""
sync_net,1,18:13:08,0,3,2,400,12000,37.04,30,13580,-1580
sync_net,1,18:13:08,1,4,2,380,15200,33.95,40,10932.6,4267.4
sync_net,1,18:13:08,2,1,2,190,1900,28.77,10,4081.2,-2181.2
sync_net,1,18:13:08,3,2,2,0,0,21.48,20,0,0
""
sync_net,1,18:13:08,0,6,1,400,8000,20.74,20,6764,1236
sync_net,1,18:13:08,1,7,1,380,11400,16.91,30,5114.8,6285.2
sync_net,1,18:13:08,2,8,1,190,7600,13.46,40,1877.2,5722.8
sync_net,1,18:13:08,3,5,1,0,0,9.88,10,0,0
""
sync_net,1,18:13:09,0,3,2,400,12000,37.04,30,13580,-1580
sync_net,1,18:13:09,1,4,2,380,15200,33.95,40,10932.6,4267.4
sync_net,1,18:13:09,2,1,2,190,1900,28.77,10,4081.2,-2181.2
sync_net,1,18:13:09,3,2,2,0,0,21.48,20,0,0
""
sync_net,1,18:13:09,0,6,1,400,8000,20.74,20,6764,1236
sync_net,1,18:13:09,1,7,1,380,11400,16.91,30,5114.8,6285.2
sync_net,1,18:13:09,2,8,1,190,7600,13.46,40,1877.2,5722.8
sync_net,1,18:13:09,3,5,1,0,0,9.88,10,0,0
""
sync_net,1,18:13:10,0,3,2,400,12000,37.04,30,13580,-1580
sync_net,1,18:13:10,1,4,2,380,15200,33.7,40,10932.6,4267.4
sync_net,1,18:13:10,2,1,2,190,1900,28.77,10,4081.2,-2181.2
sync_net,1,18:13:10,3,2,2,0,0,21.48,20,0,0
""
sync_net,1,18:13:11,0,6,1,400,8000,20.74,20,6764,1236
sync_net,1,18:13:11,1,7,1,380,11400,16.91,30,5114.8,6285.2
sync_net,1,18:13:11,2,8,1,190,7600,13.46,40,1877.2,5722.8
sync_net,1,18:13:11,3,5,1,0,0,9.88,10,0,0
""
sync_net,1,18:13:11,0,3,2,400,12000,37.04,30,13480,-1480
sync_net,1,18:13:11,1,4,2,380,15200,35.43,40,10932.6,4267.4
sync_net,1,18:13:11,2,1,2,190,1900,28.77,10,4081.2,-2181.2
sync_net,1,18:13:11,3,2,2,0,0,21.48,20,0,0
""
sync_net,1,18:13:12,0,6,1,400,8000,20.74,20,6764,1236
sync_net,1,18:13:12,1,7,1,380,11400,16.91,30,5114.8,6285.2
sync_net,1,18:13:12,2,8,1,190,7600,13.46,40,1877.2,5722.8
sync_net,1,18:13:12,3,5,1,0,0,9.88,10,0,0
""
sync_net,1,18:13:13,0,3,2,400,12000,37.04,30,14172,-2172
sync_net,1,18:13:13,1,4,2,380,15200,37.16,40,10932.6,4267.4
sync_net,1,18:13:13,2,1,2,190,1900,28.77,10,4081.2,-2181.2
sync_net,1,18:13:13,3,2,2,0,0,21.48,20,0,0
""
sync_net,1,18:13:13,0,6,1,400,8000,20.74,20,6764,1236
sync_net,1,18:13:13,1,7,1,380,11400,16.91,30,5114.8,6285.2
sync_net,1,18:13:13,2,8,1,190,7600,13.46,40,1877.2,5722.8
sync_net,1,18:13:13,3,5,1,0,0,9.88,10,0,0
""
sync_net,1,18:13:14,0,4,2,400,16000,38.89,40,14816,1184
sync_net,1,18:13:14,1,3,2,380,11400,37.04,30,10932.6,467.39999999999964
sync_net,1,18:13:14,2,1,2,190,1900,28.77,10,4081.2,-2181.2
sync_net,1,18:13:14,3,2,2,0,0,21.48,20,0,0
""
sync_net,1,18:13:14,0,6,1,400,8000,20.74,20,6764,1236
sync_net,1,18:13:14,1,7,1,380,11400,16.91,30,5114.8,6285.2
sync_net,1,18:13:14,2,8,1,190,7600,13.46,40,1877.2,5722.8
sync_net,1,18:13:14,3,5,1,0,0,9.88,10,0,0
""
sync_net,1,18:13:15,0,4,2,400,16000,38.89,40,14816,1184
sync_net,1,18:13:15,1,3,2,380,11400,37.04,30,10932.6,467.39999999999964
sync_net,1,18:13:15,2,1,2,190,1900,28.77,10,4081.2,-2181.2
sync_net,1,18:13:15,3,2,2,0,0,21.48,20,0,0
""
sync_net,1,18:13:15,0,6,1,400,8000,20.74,20,6764,1236
sync_net,1,18:13:15,1,7,1,380,11400,16.91,30,5114.8,6285.2
sync_net,1,18:13:15,2,8,1,190,7600,13.46,40,1877.2,5722.8
sync_net,1,18:13:15,3,5,1,0,0,9.88,10,0,0
""
sync_net,1,18:13:16,0,4,2,400,16000,38.89,40,14816,1184
sync_net,1,18:13:16,1,3,2,380,11400,37.04,30,10932.6,467.39999999999964
sync_net,1,18:13:16,2,1,2,190,1900,28.77,10,4081.2,-2181.2
sync_net,1,18:13:16,3,2,2,0,0,21.48,20,0,0
""
sync_net,1,18:13:16,0,6,1,400,8000,20.74,20,6764,1236
sync_net,1,18:13:16,1,7,1,380,11400,16.91,30,5114.8,6285.2
sync_net,1,18:13:16,2,8,1,190,7600,13.46,40,1877.2,5722.8
sync_net,1,18:13:16,3,5,1,0,0,9.88,10,0,0
""
sync_net,1,18:13:17,0,4,2,400,16000,37.9,40,14816,1184
sync_net,1,18:13:17,1,3,2,380,11400,37.04,30,10932.6,467.39999999999964
sync_net,1,18:13:17,2,1,2,190,1900,28.77,10,4081.2,-2181.2
sync_net,1,18:13:17,3,2,2,0,0,21.48,20,0,0
""
sync_net,1,18:13:17,0,6,1,400,8000,20.74,20,6764,1236
sync_net,1,18:13:17,1,7,1,380,11400,16.91,30,5114.8,6285.2
sync_net,1,18:13:17,2,8,1,190,7600,13.46,40,1877.2,5722.8
sync_net,1,18:13:17,3,5,1,0,0,9.88,10,0,0
""
sync_net,1,18:13:19,0,6,1,400,8000,20.74,20,6764,1236
sync_net,1,18:13:19,1,7,1,380,11400,16.91,30,5114.8,6285.2
sync_net,1,18:13:19,2,8,1,190,7600,13.46,40,1877.2,5722.8
sync_net,1,18:13:19,3,5,1,0,0,9.88,10,0,0
""
sync_net,1,18:13:19,0,4,2,400,16000,1.85,40,14816,1184
sync_net,1,18:13:19,1,3,2,380,11400,37.04,30,10932.6,467.39999999999964
sync_net,1,18:13:19,2,1,2,190,1900,28.77,10,4081.2,-2181.2
sync_net,1,18:13:19,3,2,2,0,0,21.48,20,0,0
""
sync_net,1,18:13:20,0,6,1,400,8000,20.74,20,6764,1236
sync_net,1,18:13:20,1,7,1,380,11400,16.91,30,5114.8,6285.2
sync_net,1,18:13:20,2,8,1,190,7600,13.46,40,1877.2,5722.8
sync_net,1,18:13:20,3,5,1,0,0,9.88,10,0,0
""
sync_net,1,18:13:20,0,3,2,400,12000,37.04,30,11508,492
sync_net,1,18:13:20,1,1,2,380,3800,28.77,10,8162.4,-4362.4
sync_net,1,18:13:20,2,2,2,190,3800,21.48,20,351.5,3448.5
sync_net,1,18:13:20,3,4,2,0,0,29.75,40,0,0
""
sync_net,1,18:13:21,0,6,1,400,8000,20.74,20,6764,1236
sync_net,1,18:13:21,1,7,1,380,11400,16.91,30,5114.8,6285.2
sync_net,1,18:13:21,2,8,1,190,7600,13.46,40,1877.2,5722.8
sync_net,1,18:13:21,3,5,1,0,0,9.88,10,0,0
""
sync_net,1,18:13:21,0,3,2,400,12000,37.04,30,11900,100
sync_net,1,18:13:21,1,4,2,380,15200,35.93,40,10932.6,4267.4
sync_net,1,18:13:21,2,1,2,190,1900,28.77,10,4081.2,-2181.2
sync_net,1,18:13:21,3,2,2,0,0,21.48,20,0,0
""
sync_net,1,18:13:22,0,6,1,400,8000,20.74,20,6764,1236
sync_net,1,18:13:22,1,7,1,380,11400,16.91,30,5114.8,6285.2
sync_net,1,18:13:22,2,8,1,190,7600,13.46,40,1877.2,5722.8
sync_net,1,18:13:22,3,5,1,0,0,9.88,10,0,0
""
sync_net,1,18:13:22,0,3,2,400,12000,37.04,30,14372,-2372
sync_net,1,18:13:22,1,4,2,380,15200,40.37,40,10932.6,4267.4
sync_net,1,18:13:22,2,1,2,190,1900,28.77,10,4081.2,-2181.2
sync_net,1,18:13:22,3,2,2,0,0,21.48,20,0,0
""
sync_net,1,18:13:23,0,6,1,400,8000,20.74,20,6764,1236
sync_net,1,18:13:23,1,7,1,380,11400,16.91,30,5114.8,6285.2
sync_net,1,18:13:23,2,8,1,190,7600,13.46,40,1877.2,5722.8
sync_net,1,18:13:23,3,5,1,0,0,9.88,10,0,0
""
sync_net,1,18:13:24,0,4,2,400,16000,41.6,40,14816,1184
sync_net,1,18:13:24,1,3,2,380,11400,37.04,30,10932.6,467.39999999999964
sync_net,1,18:13:24,2,1,2,190,1900,28.77,10,4081.2,-2181.2
sync_net,1,18:13:24,3,2,2,0,0,21.48,20,0,0
""
sync_net,1,18:13:24,0,6,1,400,8000,20.74,20,6764,1236
sync_net,1,18:13:24,1,7,1,380,11400,16.91,30,5114.8,6285.2
sync_net,1,18:13:24,2,8,1,190,7600,13.46,40,1877.2,5722.8
sync_net,1,18:13:24,3,5,1,0,0,9.88,10,0,0
""
sync_net,1,18:13:25,0,4,2,400,16000,41.6,40,14816,1184
sync_net,1,18:13:25,1,3,2,380,11400,37.04,30,10932.6,467.39999999999964
sync_net,1,18:13:25,2,1,2,190,1900,28.77,10,4081.2,-2181.2
sync_net,1,18:13:25,3,2,2,0,0,21.48,20,0,0
""
sync_net,1,18:13:25,0,6,1,400,8000,20.74,20,6764,1236
sync_net,1,18:13:25,1,7,1,380,11400,16.91,30,5114.8,6285.2
sync_net,1,18:13:25,2,8,1,190,7600,13.46,40,1877.2,5722.8
sync_net,1,18:13:25,3,5,1,0,0,9.88,10,0,0
""
sync_net,1,18:13:26,0,4,2,400,16000,41.6,40,14816,1184
sync_net,1,18:13:26,1,3,2,380,11400,37.04,30,10932.6,467.39999999999964
sync_net,1,18:13:26,2,1,2,190,1900,28.77,10,4081.2,-2181.2
sync_net,1,18:13:26,3,2,2,0,0,21.48,20,0,0
""
sync_net,1,18:13:26,0,6,1,400,8000,20.74,20,6764,1236
sync_net,1,18:13:26,1,7,1,380,11400,16.91,30,5114.8,6285.2
sync_net,1,18:13:26,2,8,1,190,7600,13.46,40,1877.2,5722.8
sync_net,1,18:13:26,3,5,1,0,0,9.88,10,0,0
""
sync_net,1,18:13:27,0,4,2,400,16000,41.6,40,14816,1184
sync_net,1,18:13:27,1,3,2,380,11400,37.04,30,10932.6,467.39999999999964
sync_net,1,18:13:27,2,1,2,190,1900,28.77,10,4081.2,-2181.2
sync_net,1,18:13:27,3,2,2,0,0,21.48,20,0,0
""
sync_net,1,18:13:28,0,6,1,400,8000,20.74,20,6764,1236
sync_net,1,18:13:28,1,7,1,380,11400,16.91,30,5114.8,6285.2
sync_net,1,18:13:28,2,8,1,190,7600,13.46,40,1877.2,5722.8
