Message,Period,Time,Slot,Subject,Group,CTR,Revenue,Bid,VFC,Cost,Payoff
sync_net,1,01:24:54,-1,1,1,190,1900,0,10,0,1900
sync_net,1,01:24:54,-1,2,1,380,7600,0,20,0,7600
sync_net,1,01:24:54,-1,3,1,400,12000,0,30,0,12000
sync_net,1,01:24:54,-1,4,1,1,40,0,40,0,40
""
sync_net,1,01:24:55,-1,1,1,190,1900,0,10,0,1900
sync_net,1,01:24:55,-1,2,1,380,7600,0,20,0,7600
sync_net,1,01:24:55,-1,3,1,400,12000,0,30,0,12000
sync_net,1,01:24:55,-1,4,1,1,40,0,40,0,40
""
sync_net,1,01:24:56,-1,1,1,190,1900,0,10,0,1900
sync_net,1,01:24:56,-1,2,1,380,7600,0,20,0,7600
sync_net,1,01:24:56,-1,3,1,400,12000,0,30,0,12000
sync_net,1,01:24:56,-1,4,1,1,40,0,40,0,40
""
sync_net,1,01:24:57,0,1,1,400,4000,0.15,10,0,4000
sync_net,1,01:24:57,1,2,1,380,7600,0,20,0,7600
sync_net,1,01:24:57,2,3,1,190,5700,0,30,0,5700
sync_net,1,01:24:57,3,4,1,0,0,0,40,0,0
""
sync_net,1,01:24:59,0,1,1,400,4000,30.12,10,0,4000
sync_net,1,01:24:59,1,2,1,380,7600,0,20,0,7600
sync_net,1,01:24:59,2,3,1,190,5700,0,30,0,5700
sync_net,1,01:24:59,3,4,1,0,0,0,40,0,0
""
sync_net,1,01:25:00,0,1,1,400,4000,30.12,10,0,4000
sync_net,1,01:25:00,1,2,1,380,7600,0,20,0,7600
sync_net,1,01:25:00,2,3,1,190,5700,0,30,0,5700
sync_net,1,01:25:00,3,4,1,0,0,0,40,0,0
""
sync_net,1,01:25:01,0,2,1,400,8000,50.31,20,12048,-4048
sync_net,1,01:25:01,1,1,1,380,3800,30.12,10,0,3800
sync_net,1,01:25:01,2,3,1,190,5700,0,30,0,5700
sync_net,1,01:25:01,3,4,1,0,0,0,40,0,0
""
sync_net,1,01:25:02,0,2,1,400,8000,50.92,20,12048,-4048
sync_net,1,01:25:02,1,1,1,380,3800,30.12,10,0,3800
sync_net,1,01:25:02,2,3,1,190,5700,0,30,0,5700
sync_net,1,01:25:02,3,4,1,0,0,0,40,0,0
""
sync_net,1,01:25:03,0,2,1,400,8000,50.92,20,12048,-4048
sync_net,1,01:25:03,1,1,1,380,3800,30.12,10,0,3800
sync_net,1,01:25:03,2,3,1,190,5700,0,30,0,5700
sync_net,1,01:25:03,3,4,1,0,0,0,40,0,0
""
sync_net,1,01:25:04,0,2,1,400,8000,50.92,20,12048,-4048
sync_net,1,01:25:04,1,1,1,380,3800,30.12,10,0,3800
sync_net,1,01:25:04,2,3,1,190,5700,0,30,0,5700
sync_net,1,01:25:04,3,4,1,0,0,0,40,0,0
""
sync_net,1,01:25:05,0,2,1,400,8000,50.92,20,17308,-9308
sync_net,1,01:25:05,1,3,1,380,11400,43.27,30,11445.6,-45.600000000000364
sync_net,1,01:25:05,2,1,1,190,1900,30.12,10,0,1900
sync_net,1,01:25:05,3,4,1,0,0,0,40,0,0
""
sync_net,1,01:25:06,0,2,1,400,8000,50.92,20,17308,-9308
sync_net,1,01:25:06,1,3,1,380,11400,43.27,30,11445.6,-45.600000000000364
sync_net,1,01:25:06,2,1,1,190,1900,30.12,10,0,1900
sync_net,1,01:25:06,3,4,1,0,0,0,40,0,0
""
sync_net,1,01:25:07,0,2,1,400,8000,50.92,20,17308,-9308
sync_net,1,01:25:07,1,3,1,380,11400,43.27,30,11445.6,-45.600000000000364
sync_net,1,01:25:07,2,1,1,190,1900,30.12,10,0,1900
sync_net,1,01:25:07,3,4,1,0,0,0,40,0,0
""
sync_net,1,01:25:08,0,2,1,400,8000,50.92,20,17308,-9308
sync_net,1,01:25:08,1,3,1,380,11400,43.27,30,11445.6,-45.600000000000364
sync_net,1,01:25:08,2,1,1,190,1900,30.12,10,28.5,1871.5
sync_net,1,01:25:08,3,4,1,0,0,0.15,40,0,0
""
sync_net,1,01:25:09,0,2,1,400,8000,50.92,20,19144,-11144
sync_net,1,01:25:09,1,4,1,380,15200,47.86,40,16442.6,-1242.5999999999985
sync_net,1,01:25:09,2,3,1,190,5700,43.27,30,5722.8,-22.800000000000182
sync_net,1,01:25:09,3,1,1,0,0,30.12,10,0,0
""
sync_net,1,01:25:10,0,2,1,400,8000,50.92,20,19144,-11144
sync_net,1,01:25:10,1,4,1,380,15200,47.86,40,16442.6,-1242.5999999999985
sync_net,1,01:25:10,2,3,1,190,5700,43.27,30,5722.8,-22.800000000000182
sync_net,1,01:25:10,3,1,1,0,0,30.12,10,0,0
""
sync_net,1,01:25:11,0,2,1,400,8000,50.92,20,19144,-11144
sync_net,1,01:25:11,1,4,1,380,15200,47.86,40,16442.6,-1242.5999999999985
sync_net,1,01:25:11,2,3,1,190,5700,43.27,30,5722.8,-22.800000000000182
sync_net,1,01:25:11,3,1,1,0,0,30.12,10,0,0
""
sync_net,1,01:25:13,0,2,1,400,8000,50.92,20,17308,-9308
sync_net,1,01:25:13,1,3,1,380,11400,43.27,30,11445.6,-45.600000000000364
sync_net,1,01:25:13,2,1,1,190,1900,30.12,10,5700,-3800
sync_net,1,01:25:13,3,4,1,0,0,30,40,0,0
""
sync_net,1,01:25:14,0,2,1,400,8000,50.92,20,17308,-9308
sync_net,1,01:25:14,1,3,1,380,11400,43.27,30,11445.6,-45.600000000000364
sync_net,1,01:25:14,2,1,1,190,1900,30.12,10,5700,-3800
sync_net,1,01:25:14,3,4,1,0,0,30,40,0,0
""
sync_net,1,01:25:15,0,2,1,400,8000,50.92,20,17308,-9308
sync_net,1,01:25:15,1,3,1,380,11400,43.27,30,11445.6,-45.600000000000364
sync_net,1,01:25:15,2,1,1,190,1900,30.12,10,5700,-3800
sync_net,1,01:25:15,3,4,1,0,0,30,40,0,0
""
sync_net,1,01:25:16,0,2,1,400,8000,50.92,20,17308,-9308
sync_net,1,01:25:16,1,3,1,380,11400,43.27,30,15200,-3800
sync_net,1,01:25:16,2,4,1,190,7600,40,40,5722.8,1877.1999999999998
sync_net,1,01:25:16,3,1,1,0,0,30.12,10,0,0
""
sync_net,1,01:25:17,0,2,1,400,8000,50.92,20,17308,-9308
sync_net,1,01:25:17,1,3,1,380,11400,43.27,30,15200,-3800
sync_net,1,01:25:17,2,4,1,190,7600,40,40,5722.8,1877.1999999999998
sync_net,1,01:25:17,3,1,1,0,0,30.12,10,0,0
""
sync_net,1,01:25:18,0,2,1,400,8000,50.92,20,17308,-9308
sync_net,1,01:25:18,1,3,1,380,11400,43.27,30,15200,-3800
sync_net,1,01:25:18,2,4,1,190,7600,40,40,5722.8,1877.1999999999998
sync_net,1,01:25:18,3,1,1,0,0,30.12,10,0,0
""
sync_net,1,01:25:19,0,2,1,400,8000,50.92,20,17308,-9308
sync_net,1,01:25:19,1,3,1,380,11400,43.27,30,15200,-3800
sync_net,1,01:25:19,2,4,1,190,7600,40,40,5722.8,1877.1999999999998
sync_net,1,01:25:19,3,1,1,0,0,30.12,10,0,0
""
sync_net,1,01:25:20,0,2,1,400,8000,50.92,20,16000,-8000
sync_net,1,01:25:20,1,4,1,380,15200,40,40,11445.6,3754.3999999999996
sync_net,1,01:25:20,2,1,1,190,1900,30.12,10,5700,-3800
sync_net,1,01:25:20,3,3,1,0,0,30,30,0,0
""
sync_net,1,01:25:21,0,2,1,400,8000,50.92,20,16000,-8000
sync_net,1,01:25:21,1,4,1,380,15200,40,40,11445.6,3754.3999999999996
sync_net,1,01:25:21,2,1,1,190,1900,30.12,10,5700,-3800
sync_net,1,01:25:21,3,3,1,0,0,30,30,0,0
""
sync_net,1,01:25:22,0,2,1,400,8000,50.92,20,16000,-8000
sync_net,1,01:25:22,1,4,1,380,15200,40,40,11445.6,3754.3999999999996
sync_net,1,01:25:22,2,1,1,190,1900,30.12,10,5700,-3800
sync_net,1,01:25:22,3,3,1,0,0,30,30,0,0
""
sync_net,1,01:25:23,0,4,1,400,16000,40,40,12048,3952
sync_net,1,01:25:23,1,1,1,380,3800,30.12,10,11400,-7600
sync_net,1,01:25:23,2,3,1,190,5700,30,30,3800,1900
sync_net,1,01:25:23,3,2,1,0,0,20,20,0,0
""
sync_net,1,01:25:24,0,4,1,400,16000,40,40,12048,3952
sync_net,1,01:25:24,1,1,1,380,3800,30.12,10,11400,-7600
sync_net,1,01:25:24,2,3,1,190,5700,30,30,3800,1900
sync_net,1,01:25:24,3,2,1,0,0,20,20,0,0
""
sync_net,1,01:25:26,0,4,1,400,16000,40,40,12048,3952
sync_net,1,01:25:26,1,1,1,380,3800,30.12,10,11400,-7600
sync_net,1,01:25:26,2,3,1,190,5700,30,30,3800,1900
sync_net,1,01:25:26,3,2,1,0,0,20,20,0,0
""
sync_net,1,01:25:27,0,4,1,400,16000,40,40,12048,3952
sync_net,1,01:25:27,1,1,1,380,3800,30.12,10,11400,-7600
sync_net,1,01:25:27,2,3,1,190,5700,30,30,3800,1900
sync_net,1,01:25:27,3,2,1,0,0,20,20,0,0
""
sync_net,1,01:25:28,0,4,1,400,16000,40,40,12000,4000
sync_net,1,01:25:28,1,3,1,380,11400,30,30,7600,3800
sync_net,1,01:25:28,2,2,1,190,3800,20,20,1900,1900
sync_net,1,01:25:28,3,1,1,0,0,10,10,0,0
""
sync_net,1,01:25:29,0,4,1,400,16000,40,40,12000,4000
sync_net,1,01:25:29,1,3,1,380,11400,30,30,7600,3800
sync_net,1,01:25:29,2,2,1,190,3800,20,20,1900,1900
sync_net,1,01:25:29,3,1,1,0,0,10,10,0,0
""
sync_net,1,01:25:30,0,4,1,400,16000,40,40,12000,4000
sync_net,1,01:25:30,1,3,1,380,11400,30,30,7600,3800
sync_net,1,01:25:30,2,2,1,190,3800,20,20,1900,1900
sync_net,1,01:25:30,3,1,1,0,0,10,10,0,0
""
sync_net,1,01:25:31,0,4,1,400,16000,40,40,12000,4000
sync_net,1,01:25:31,1,3,1,380,11400,30,30,7600,3800
sync_net,1,01:25:31,2,2,1,190,3800,20,20,1900,1900
sync_net,1,01:25:31,3,1,1,0,0,10,10,0,0
""
sync_net,1,01:25:32,0,4,1,400,16000,40,40,12000,4000
sync_net,1,01:25:32,1,3,1,380,11400,30,30,7600,3800
sync_net,1,01:25:32,2,2,1,190,3800,20,20,1900,1900
sync_net,1,01:25:32,3,1,1,0,0,10,10,0,0
""
sync_net,1,01:25:33,0,4,1,400,16000,40,40,12000,4000
sync_net,1,01:25:33,1,3,1,380,11400,30,30,7600,3800
sync_net,1,01:25:33,2,2,1,190,3800,20,20,1900,1900
sync_net,1,01:25:33,3,1,1,0,0,10,10,0,0
""
sync_net,1,01:25:34,0,4,1,400,16000,40,40,12000,4000
sync_net,1,01:25:34,1,3,1,380,11400,30,30,7600,3800
sync_net,1,01:25:34,2,2,1,190,3800,20,20,1900,1900
sync_net,1,01:25:34,3,1,1,0,0,10,10,0,0
""
sync_net,1,01:25:35,0,4,1,400,16000,40,40,12000,4000
sync_net,1,01:25:35,1,3,1,380,11400,30,30,7600,3800
sync_net,1,01:25:35,2,2,1,190,3800,20,20,1900,1900
sync_net,1,01:25:35,3,1,1,0,0,10,10,0,0
""
sync_net,1,01:25:36,0,4,1,400,16000,40,40,12000,4000
sync_net,1,01:25:36,1,3,1,380,11400,30,30,7600,3800
sync_net,1,01:25:36,2,2,1,190,3800,20,20,1900,1900
sync_net,1,01:25:36,3,1,1,0,0,10,10,0,0
""
sync_net,1,01:25:37,0,4,1,400,16000,40,40,12000,4000
sync_net,1,01:25:37,1,3,1,380,11400,30,30,7600,3800
sync_net,1,01:25:37,2,2,1,190,3800,20,20,1900,1900
sync_net,1,01:25:37,3,1,1,0,0,10,10,0,0
""
sync_net,1,01:25:38,0,4,1,400,16000,40,40,12000,4000
sync_net,1,01:25:38,1,3,1,380,11400,30,30,7600,3800
sync_net,1,01:25:38,2,2,1,190,3800,20,20,1900,1900
sync_net,1,01:25:38,3,1,1,0,0,10,10,0,0
""
sync_net,1,01:25:40,0,4,1,400,16000,40,40,12000,4000
sync_net,1,01:25:40,1,3,1,380,11400,30,30,7600,3800
sync_net,1,01:25:40,2,2,1,190,3800,20,20,1900,1900
sync_net,1,01:25:40,3,1,1,0,0,10,10,0,0
""
sync_net,1,01:25:41,0,4,1,400,16000,40,40,12000,4000
sync_net,1,01:25:41,1,3,1,380,11400,30,30,7600,3800
sync_net,1,01:25:41,2,2,1,190,3800,20,20,1900,1900
sync_net,1,01:25:41,3,1,1,0,0,10,10,0,0
""
sync_net,1,01:25:42,0,4,1,400,16000,40,40,12000,4000
sync_net,1,01:25:42,1,3,1,380,11400,30,30,7600,3800
sync_net,1,01:25:42,2,2,1,190,3800,20,20,1900,1900
sync_net,1,01:25:42,3,1,1,0,0,10,10,0,0
""
sync_net,1,01:25:43,0,4,1,400,16000,40,40,12000,4000
sync_net,1,01:25:43,1,3,1,380,11400,30,30,7600,3800
sync_net,1,01:25:43,2,2,1,190,3800,20,20,1900,1900
sync_net,1,01:25:43,3,1,1,0,0,10,10,0,0
""
sync_net,1,01:25:44,0,4,1,400,16000,40,40,12000,4000
sync_net,1,01:25:44,1,3,1,380,11400,30,30,7600,3800
sync_net,1,01:25:44,2,2,1,190,3800,20,20,1900,1900
sync_net,1,01:25:44,3,1,1,0,0,10,10,0,0
""
sync_net,1,01:25:45,0,4,1,400,16000,40,40,12000,4000
sync_net,1,01:25:45,1,3,1,380,11400,30,30,7600,3800
sync_net,1,01:25:45,2,2,1,190,3800,20,20,1900,1900
sync_net,1,01:25:45,3,1,1,0,0,10,10,0,0
""
sync_net,1,01:25:46,0,4,1,400,16000,40,40,12000,4000
sync_net,1,01:25:46,1,3,1,380,11400,30,30,7600,3800
sync_net,1,01:25:46,2,2,1,190,3800,20,20,1900,1900
sync_net,1,01:25:46,3,1,1,0,0,10,10,0,0
""
sync_net,1,01:25:47,0,4,1,400,16000,40,40,12000,4000
sync_net,1,01:25:47,1,3,1,380,11400,30,30,7600,3800
sync_net,1,01:25:47,2,2,1,190,3800,20,20,1900,1900
sync_net,1,01:25:47,3,1,1,0,0,10,10,0,0
""
sync_net,1,01:25:48,0,4,1,400,16000,40,40,12000,4000
sync_net,1,01:25:48,1,3,1,380,11400,30,30,7600,3800
sync_net,1,01:25:48,2,2,1,190,3800,20,20,1900,1900
sync_net,1,01:25:48,3,1,1,0,0,10,10,0,0
""
sync_net,1,01:25:49,0,4,1,400,16000,40,40,12000,4000
sync_net,1,01:25:49,1,3,1,380,11400,30,30,7600,3800
sync_net,1,01:25:49,2,2,1,190,3800,20,20,1900,1900
sync_net,1,01:25:49,3,1,1,0,0,10,10,0,0
""
sync_net,1,01:25:50,0,4,1,400,16000,40,40,12000,4000
sync_net,1,01:25:50,1,3,1,380,11400,30,30,7600,3800
sync_net,1,01:25:50,2,2,1,190,3800,20,20,1900,1900
sync_net,1,01:25:50,3,1,1,0,0,10,10,0,0
""
sync_net,1,01:25:52,0,4,1,400,16000,40,40,12000,4000
sync_net,1,01:25:52,1,3,1,380,11400,30,30,7600,3800
sync_net,1,01:25:52,2,2,1,190,3800,20,20,1900,1900
sync_net,1,01:25:52,3,1,1,0,0,10,10,0,0
""
sync_net,1,01:25:53,0,4,1,400,16000,40,40,12000,4000
sync_net,1,01:25:53,1,3,1,380,11400,30,30,7600,3800
sync_net,1,01:25:53,2,2,1,190,3800,20,20,1900,1900
sync_net,1,01:25:53,3,1,1,0,0,10,10,0,0
""
sync_net,1,01:25:54,0,4,1,400,16000,40,40,12000,4000
sync_net,1,01:25:54,1,3,1,380,11400,30,30,7600,3800
sync_net,1,01:25:54,2,2,1,190,3800,20,20,1900,1900
sync_net,1,01:25:54,3,1,1,0,0,10,10,0,0
""
sync_net,1,01:25:55,0,4,1,400,16000,40,40,12000,4000
sync_net,1,01:25:55,1,3,1,380,11400,30,30,7600,3800
sync_net,1,01:25:55,2,2,1,190,3800,20,20,1900,1900
sync_net,1,01:25:55,3,1,1,0,0,10,10,0,0
""
sync_net,1,01:25:56,0,4,1,400,16000,40,40,12000,4000
sync_net,1,01:25:56,1,3,1,380,11400,30,30,7600,3800
sync_net,1,01:25:56,2,2,1,190,3800,20,20,1900,1900
sync_net,1,01:25:56,3,1,1,0,0,10,10,0,0
""
sync_net,1,01:25:57,0,4,1,400,16000,40,40,12000,4000
sync_net,1,01:25:57,1,3,1,380,11400,30,30,7600,3800
sync_net,1,01:25:57,2,2,1,190,3800,20,20,1900,1900
sync_net,1,01:25:57,3,1,1,0,0,10,10,0,0
""
sync_net,1,01:25:58,0,4,1,400,16000,40,40,12000,4000
sync_net,1,01:25:58,1,3,1,380,11400,30,30,7600,3800
sync_net,1,01:25:58,2,2,1,190,3800,20,20,1900,1900
sync_net,1,01:25:58,3,1,1,0,0,10,10,0,0
""
sync_net,1,01:25:59,0,4,1,400,16000,40,40,12000,4000
sync_net,1,01:25:59,1,3,1,380,11400,30,30,7600,3800
sync_net,1,01:25:59,2,2,1,190,3800,20,20,1900,1900
sync_net,1,01:25:59,3,1,1,0,0,10,10,0,0
""
sync_net,1,01:26:00,0,4,1,400,16000,40,40,12000,4000
sync_net,1,01:26:00,1,3,1,380,11400,30,30,7600,3800
sync_net,1,01:26:00,2,2,1,190,3800,20,20,1900,1900
sync_net,1,01:26:00,3,1,1,0,0,10,10,0,0
""
sync_net,1,01:26:01,0,4,1,400,16000,40,40,12000,4000
sync_net,1,01:26:01,1,3,1,380,11400,30,30,7600,3800
sync_net,1,01:26:01,2,2,1,190,3800,20,20,1900,1900
sync_net,1,01:26:01,3,1,1,0,0,10,10,0,0
""
sync_net,1,01:26:02,0,4,1,400,16000,40,40,12000,4000
sync_net,1,01:26:02,1,3,1,380,11400,30,30,7600,3800
sync_net,1,01:26:02,2,2,1,190,3800,20,20,1900,1900
sync_net,1,01:26:02,3,1,1,0,0,10,10,0,0
""
sync_net,1,01:26:03,0,4,1,400,16000,40,40,12000,4000
sync_net,1,01:26:03,1,3,1,380,11400,30,30,7600,3800
sync_net,1,01:26:03,2,2,1,190,3800,20,20,1900,1900
sync_net,1,01:26:03,3,1,1,0,0,10,10,0,0
""
sync_net,1,01:26:05,0,4,1,400,16000,40,40,12000,4000
sync_net,1,01:26:05,1,3,1,380,11400,30,30,7600,3800
sync_net,1,01:26:05,2,2,1,190,3800,20,20,1900,1900
sync_net,1,01:26:05,3,1,1,0,0,10,10,0,0
""
sync_net,1,01:26:06,0,4,1,400,16000,40,40,12000,4000
sync_net,1,01:26:06,1,3,1,380,11400,30,30,7600,3800
sync_net,1,01:26:06,2,2,1,190,3800,20,20,1900,1900
sync_net,1,01:26:06,3,1,1,0,0,10,10,0,0
""
sync_net,1,01:26:07,0,4,1,400,16000,40,40,12000,4000
sync_net,1,01:26:07,1,3,1,380,11400,30,30,7600,3800
sync_net,1,01:26:07,2,2,1,190,3800,20,20,1900,1900
sync_net,1,01:26:07,3,1,1,0,0,10,10,0,0
""
sync_net,1,01:26:08,0,4,1,400,16000,40,40,12000,4000
sync_net,1,01:26:08,1,3,1,380,11400,30,30,7600,3800
sync_net,1,01:26:08,2,2,1,190,3800,20,20,1900,1900
sync_net,1,01:26:08,3,1,1,0,0,10,10,0,0
""
sync_net,1,01:26:09,0,4,1,400,16000,40,40,12000,4000
sync_net,1,01:26:09,1,3,1,380,11400,30,30,7600,3800
sync_net,1,01:26:09,2,2,1,190,3800,20,20,1900,1900
sync_net,1,01:26:09,3,1,1,0,0,10,10,0,0
""
sync_net,1,01:26:10,0,4,1,400,16000,40,40,12000,4000
sync_net,1,01:26:10,1,3,1,380,11400,30,30,7600,3800
sync_net,1,01:26:10,2,2,1,190,3800,20,20,1900,1900
sync_net,1,01:26:10,3,1,1,0,0,10,10,0,0
""
sync_net,1,01:26:11,0,4,1,400,16000,40,40,12000,4000
sync_net,1,01:26:11,1,3,1,380,11400,30,30,7600,3800
sync_net,1,01:26:11,2,2,1,190,3800,20,20,1900,1900
sync_net,1,01:26:11,3,1,1,0,0,10,10,0,0
""
sync_net,1,01:26:12,0,4,1,400,16000,40,40,12000,4000
sync_net,1,01:26:12,1,3,1,380,11400,30,30,7600,3800
sync_net,1,01:26:12,2,2,1,190,3800,20,20,1900,1900
sync_net,1,01:26:12,3,1,1,0,0,10,10,0,0
""
sync_net,1,01:26:13,0,4,1,400,16000,40,40,12000,4000
sync_net,1,01:26:13,1,3,1,380,11400,30,30,7600,3800
sync_net,1,01:26:13,2,2,1,190,3800,20,20,1900,1900
sync_net,1,01:26:13,3,1,1,0,0,10,10,0,0
""
sync_net,1,01:26:14,0,4,1,400,16000,40,40,12000,4000
sync_net,1,01:26:14,1,3,1,380,11400,30,30,7600,3800
sync_net,1,01:26:14,2,2,1,190,3800,20,20,1900,1900
sync_net,1,01:26:14,3,1,1,0,0,10,10,0,0
""
sync_net,1,01:26:16,0,4,1,400,16000,40,40,12000,4000
sync_net,1,01:26:16,1,3,1,380,11400,30,30,7600,3800
sync_net,1,01:26:16,2,2,1,190,3800,20,20,1900,1900
sync_net,1,01:26:16,3,1,1,0,0,10,10,0,0
""
sync_net,1,01:26:17,0,4,1,400,16000,40,40,12000,4000
sync_net,1,01:26:17,1,3,1,380,11400,30,30,7600,3800
sync_net,1,01:26:17,2,2,1,190,3800,20,20,1900,1900
sync_net,1,01:26:17,3,1,1,0,0,10,10,0,0
""
sync_net,1,01:26:18,0,4,1,400,16000,40,40,12000,4000
sync_net,1,01:26:18,1,3,1,380,11400,30,30,7600,3800
sync_net,1,01:26:18,2,2,1,190,3800,20,20,1900,1900
sync_net,1,01:26:18,3,1,1,0,0,10,10,0,0
""
sync_net,1,01:26:19,0,4,1,400,16000,40,40,12000,4000
sync_net,1,01:26:19,1,3,1,380,11400,30,30,7600,3800
sync_net,1,01:26:19,2,2,1,190,3800,20,20,1900,1900
sync_net,1,01:26:19,3,1,1,0,0,10,10,0,0
""
sync_net,1,01:26:20,0,4,1,400,16000,40,40,12000,4000
sync_net,1,01:26:20,1,3,1,380,11400,30,30,7600,3800
sync_net,1,01:26:20,2,2,1,190,3800,20,20,1900,1900
sync_net,1,01:26:20,3,1,1,0,0,10,10,0,0
""
sync_net,1,01:26:21,0,4,1,400,16000,40,40,12000,4000
sync_net,1,01:26:21,1,3,1,380,11400,30,30,7600,3800
sync_net,1,01:26:21,2,2,1,190,3800,20,20,1900,1900
sync_net,1,01:26:21,3,1,1,0,0,10,10,0,0
""
sync_net,1,01:26:22,0,4,1,400,16000,40,40,12000,4000
sync_net,1,01:26:22,1,3,1,380,11400,30,30,7600,3800
sync_net,1,01:26:22,2,2,1,190,3800,20,20,1900,1900
sync_net,1,01:26:22,3,1,1,0,0,10,10,0,0
""
sync_net,1,01:26:23,0,4,1,400,16000,40,40,12000,4000
sync_net,1,01:26:23,1,3,1,380,11400,30,30,7600,3800
sync_net,1,01:26:23,2,2,1,190,3800,20,20,1900,1900
sync_net,1,01:26:23,3,1,1,0,0,10,10,0,0
""
sync_net,1,01:26:24,0,4,1,400,16000,40,40,12000,4000
sync_net,1,01:26:24,1,3,1,380,11400,30,30,7600,3800
sync_net,1,01:26:24,2,2,1,190,3800,20,20,1900,1900
sync_net,1,01:26:24,3,1,1,0,0,10,10,0,0
""
sync_net,1,01:26:25,0,4,1,400,16000,40,40,12000,4000
sync_net,1,01:26:25,1,3,1,380,11400,30,30,7600,3800
sync_net,1,01:26:25,2,2,1,190,3800,20,20,1900,1900
sync_net,1,01:26:25,3,1,1,0,0,10,10,0,0
""
sync_net,1,01:26:27,0,4,1,400,16000,40,40,12000,4000
sync_net,1,01:26:27,1,3,1,380,11400,30,30,7600,3800
sync_net,1,01:26:27,2,2,1,190,3800,20,20,1900,1900
sync_net,1,01:26:27,3,1,1,0,0,10,10,0,0
""
sync_net,1,01:26:28,0,4,1,400,16000,40,40,12000,4000
sync_net,1,01:26:28,1,3,1,380,11400,30,30,7600,3800
sync_net,1,01:26:28,2,2,1,190,3800,20,20,1900,1900
sync_net,1,01:26:28,3,1,1,0,0,10,10,0,0
""
sync_net,1,01:26:29,0,4,1,400,16000,40,40,12000,4000
sync_net,1,01:26:29,1,3,1,380,11400,30,30,7600,3800
sync_net,1,01:26:29,2,2,1,190,3800,20,20,1900,1900
sync_net,1,01:26:29,3,1,1,0,0,10,10,0,0
""
sync_net,1,01:26:30,0,4,1,400,16000,40,40,12000,4000
sync_net,1,01:26:30,1,3,1,380,11400,30,30,7600,3800
sync_net,1,01:26:30,2,2,1,190,3800,20,20,1900,1900
sync_net,1,01:26:30,3,1,1,0,0,10,10,0,0
""
sync_net,1,01:26:31,0,4,1,400,16000,40,40,12000,4000
sync_net,1,01:26:31,1,3,1,380,11400,30,30,7600,3800
sync_net,1,01:26:31,2,2,1,190,3800,20,20,1900,1900
sync_net,1,01:26:31,3,1,1,0,0,10,10,0,0
""
sync_net,1,01:26:32,0,4,1,400,16000,40,40,12000,4000
sync_net,1,01:26:32,1,3,1,380,11400,30,30,7600,3800
sync_net,1,01:26:32,2,2,1,190,3800,20,20,1900,1900
sync_net,1,01:26:32,3,1,1,0,0,10,10,0,0
""
sync_net,1,01:26:33,0,4,1,400,16000,40,40,12000,4000
sync_net,1,01:26:33,1,3,1,380,11400,30,30,7600,3800
sync_net,1,01:26:33,2,2,1,190,3800,20,20,1900,1900
sync_net,1,01:26:33,3,1,1,0,0,10,10,0,0
""
sync_net,1,01:26:34,0,4,1,400,16000,40,40,12000,4000
sync_net,1,01:26:34,1,3,1,380,11400,30,30,7600,3800
sync_net,1,01:26:34,2,2,1,190,3800,20,20,1900,1900
sync_net,1,01:26:34,3,1,1,0,0,10,10,0,0
""
sync_net,1,01:26:35,0,4,1,400,16000,40,40,12000,4000
sync_net,1,01:26:35,1,3,1,380,11400,30,30,7600,3800
sync_net,1,01:26:35,2,2,1,190,3800,20,20,1900,1900
sync_net,1,01:26:35,3,1,1,0,0,10,10,0,0
""
sync_net,1,01:26:36,0,4,1,400,16000,40,40,12000,4000
sync_net,1,01:26:36,1,3,1,380,11400,30,30,7600,3800
sync_net,1,01:26:36,2,2,1,190,3800,20,20,1900,1900
sync_net,1,01:26:36,3,1,1,0,0,10,10,0,0
""
sync_net,1,01:26:37,0,4,1,400,16000,40,40,12000,4000
sync_net,1,01:26:37,1,3,1,380,11400,30,30,7600,3800
sync_net,1,01:26:37,2,2,1,190,3800,20,20,1900,1900
sync_net,1,01:26:37,3,1,1,0,0,10,10,0,0
""
sync_net,1,01:26:39,0,4,1,400,16000,40,40,12000,4000
sync_net,1,01:26:39,1,3,1,380,11400,30,30,7600,3800
sync_net,1,01:26:39,2,2,1,190,3800,20,20,1900,1900
sync_net,1,01:26:39,3,1,1,0,0,10,10,0,0
""
sync_net,1,01:26:40,0,4,1,400,16000,40,40,12000,4000
sync_net,1,01:26:40,1,3,1,380,11400,30,30,7600,3800
sync_net,1,01:26:40,2,2,1,190,3800,20,20,1900,1900
sync_net,1,01:26:40,3,1,1,0,0,10,10,0,0
""
sync_net,1,01:26:41,0,4,1,400,16000,40,40,12000,4000
sync_net,1,01:26:41,1,3,1,380,11400,30,30,7600,3800
sync_net,1,01:26:41,2,2,1,190,3800,20,20,1900,1900
sync_net,1,01:26:41,3,1,1,0,0,10,10,0,0
""
sync_net,1,01:26:42,0,4,1,400,16000,40,40,12000,4000
sync_net,1,01:26:42,1,3,1,380,11400,30,30,7600,3800
sync_net,1,01:26:42,2,2,1,190,3800,20,20,1900,1900
sync_net,1,01:26:42,3,1,1,0,0,10,10,0,0
""
sync_net,2,01:28:45,-1,1,1,190,8930,0,47,0,8930
sync_net,2,01:28:45,-1,2,1,380,17100,0,45,0,17100
sync_net,2,01:28:45,-1,3,1,400,16000,0,40,0,16000
sync_net,2,01:28:45,-1,4,1,1,37,0,37,0,37
""
sync_net,2,01:28:47,-1,1,1,190,8930,0,47,0,8930
sync_net,2,01:28:47,-1,2,1,380,17100,0,45,0,17100
sync_net,2,01:28:47,-1,3,1,400,16000,0,40,0,16000
sync_net,2,01:28:47,-1,4,1,1,37,0,37,0,37
""
sync_net,2,01:28:49,-1,1,1,190,8930,0,47,0,8930
sync_net,2,01:28:49,-1,2,1,380,17100,0,45,0,17100
sync_net,2,01:28:49,-1,3,1,400,16000,0,40,0,16000
sync_net,2,01:28:49,-1,4,1,1,37,0,37,0,37
""
sync_net,2,01:28:50,-1,1,1,190,8930,0,47,0,8930
sync_net,2,01:28:50,-1,2,1,380,17100,0,45,0,17100
sync_net,2,01:28:50,-1,3,1,400,16000,0,40,0,16000
sync_net,2,01:28:50,-1,4,1,1,37,0,37,0,37
""
sync_net,2,01:28:51,-1,1,1,190,8930,0,47,0,8930
sync_net,2,01:28:51,-1,2,1,380,17100,0,45,0,17100
sync_net,2,01:28:51,-1,3,1,400,16000,0,40,0,16000
sync_net,2,01:28:51,-1,4,1,1,37,0,37,0,37
""
sync_net,2,01:28:52,0,1,1,400,18800,56.42,47,0,18800
sync_net,2,01:28:52,1,2,1,380,17100,0,45,0,17100
sync_net,2,01:28:52,2,3,1,190,7600,0,40,0,7600
sync_net,2,01:28:52,3,4,1,0,0,0,37,0,0
""
sync_net,2,01:28:53,0,1,1,400,18800,56.42,47,0,18800
sync_net,2,01:28:53,1,2,1,380,17100,0,45,0,17100
sync_net,2,01:28:53,2,3,1,190,7600,0,40,0,7600
sync_net,2,01:28:53,3,4,1,0,0,0,37,0,0
""
sync_net,2,01:28:54,0,1,1,400,18800,56.42,47,304,18496
sync_net,2,01:28:54,1,2,1,380,17100,0.76,45,0,17100
sync_net,2,01:28:54,2,3,1,190,7600,0,40,0,7600
sync_net,2,01:28:54,3,4,1,0,0,0,37,0,0
""
sync_net,2,01:28:55,0,1,1,400,18800,56.42,47,19512,-712
sync_net,2,01:28:55,1,2,1,380,17100,48.78,45,0,17100
sync_net,2,01:28:55,2,3,1,190,7600,0,40,0,7600
sync_net,2,01:28:55,3,4,1,0,0,0,37,0,0
""
sync_net,2,01:28:57,0,1,1,400,18800,56.42,47,19512,-712
sync_net,2,01:28:57,1,2,1,380,17100,48.78,45,0,17100
sync_net,2,01:28:57,2,3,1,190,7600,0,40,0,7600
sync_net,2,01:28:57,3,4,1,0,0,0,37,0,0
""
sync_net,2,01:28:58,0,3,1,400,16000,57.65,40,22568,-6568
sync_net,2,01:28:58,1,1,1,380,17860,56.42,47,18536.4,-676.4000000000015
sync_net,2,01:28:58,2,2,1,190,8550,48.78,45,0,8550
sync_net,2,01:28:58,3,4,1,0,0,0,37,0,0
""
sync_net,2,01:28:59,0,3,1,400,16000,65.6,40,22568,-6568
sync_net,2,01:28:59,1,1,1,380,17860,56.42,47,18536.4,-676.4000000000015
sync_net,2,01:28:59,2,2,1,190,8550,48.78,45,0,8550
sync_net,2,01:28:59,3,4,1,0,0,0,37,0,0
""
sync_net,2,01:29:00,0,3,1,400,16000,65.6,40,22568,-6568
sync_net,2,01:29:00,1,1,1,380,17860,56.42,47,18536.4,-676.4000000000015
sync_net,2,01:29:00,2,2,1,190,8550,48.78,45,0,8550
sync_net,2,01:29:00,3,4,1,0,0,0,37,0,0
""
sync_net,2,01:29:01,0,3,1,400,16000,65.6,40,22568,-6568
sync_net,2,01:29:01,1,1,1,380,17860,56.42,47,18536.4,-676.4000000000015
sync_net,2,01:29:01,2,2,1,190,8550,48.78,45,0,8550
sync_net,2,01:29:01,3,4,1,0,0,0,37,0,0
""
sync_net,2,01:29:02,0,4,1,400,14800,72.94,37,26240,-11440
sync_net,2,01:29:02,1,3,1,380,15200,65.6,40,21439.6,-6239.5999999999985
sync_net,2,01:29:02,2,1,1,190,8930,56.42,47,9268.2,-338.2000000000007
sync_net,2,01:29:02,3,2,1,0,0,48.78,45,0,0
""
sync_net,2,01:29:03,0,4,1,400,14800,72.94,37,26240,-11440
sync_net,2,01:29:03,1,3,1,380,15200,65.6,40,21439.6,-6239.5999999999985
sync_net,2,01:29:03,2,1,1,190,8930,56.42,47,9268.2,-338.2000000000007
sync_net,2,01:29:03,3,2,1,0,0,48.78,45,0,0
""
sync_net,2,01:29:04,0,4,1,400,14800,72.94,37,26240,-11440
sync_net,2,01:29:04,1,3,1,380,15200,65.6,40,21439.6,-6239.5999999999985
sync_net,2,01:29:04,2,1,1,190,8930,56.42,47,9268.2,-338.2000000000007
sync_net,2,01:29:04,3,2,1,0,0,48.78,45,0,0
""
sync_net,2,01:29:05,0,4,1,400,14800,72.94,37,26240,-11440
sync_net,2,01:29:05,1,3,1,380,15200,65.6,40,21439.6,-6239.5999999999985
sync_net,2,01:29:05,2,1,1,190,8930,56.42,47,9268.2,-338.2000000000007
sync_net,2,01:29:05,3,2,1,0,0,48.78,45,0,0
""
sync_net,2,01:29:06,0,4,1,400,14800,72.94,37,26240,-11440
sync_net,2,01:29:06,1,3,1,380,15200,65.6,40,21439.6,-6239.5999999999985
sync_net,2,01:29:06,2,1,1,190,8930,56.42,47,9268.2,-338.2000000000007
sync_net,2,01:29:06,3,2,1,0,0,48.78,45,0,0
""
sync_net,2,01:29:07,0,4,1,400,14800,72.94,37,26240,-11440
sync_net,2,01:29:07,1,3,1,380,15200,65.6,40,21439.6,-6239.5999999999985
sync_net,2,01:29:07,2,1,1,190,8930,56.42,47,9268.2,-338.2000000000007
sync_net,2,01:29:07,3,2,1,0,0,48.78,45,0,0
""
sync_net,2,01:29:17,-1,1,1,190,8930,0,47,0,8930
sync_net,2,01:29:17,-1,2,1,380,17100,0,45,0,17100
sync_net,2,01:29:17,-1,3,1,400,16000,0,40,0,16000
sync_net,2,01:29:17,-1,4,1,1,37,0,37,0,37
""
sync_net,2,01:29:18,-1,1,1,190,8930,0,47,0,8930
sync_net,2,01:29:18,-1,2,1,380,17100,0,45,0,17100
sync_net,2,01:29:18,-1,3,1,400,16000,0,40,0,16000
sync_net,2,01:29:18,-1,4,1,1,37,0,37,0,37
""
sync_net,2,01:29:19,-1,1,1,190,8930,0,47,0,8930
sync_net,2,01:29:19,-1,2,1,380,17100,0,45,0,17100
sync_net,2,01:29:19,-1,3,1,400,16000,0,40,0,16000
sync_net,2,01:29:19,-1,4,1,1,37,0,37,0,37
""
sync_net,2,01:29:20,0,1,1,400,18800,47,47,0,18800
sync_net,2,01:29:20,1,2,1,380,17100,0,45,0,17100
sync_net,2,01:29:20,2,3,1,190,7600,0,40,0,7600
sync_net,2,01:29:20,3,4,1,0,0,0,37,0,0
""
sync_net,2,01:29:21,0,1,1,400,18800,47,47,0,18800
sync_net,2,01:29:21,1,2,1,380,17100,0,45,0,17100
sync_net,2,01:29:21,2,3,1,190,7600,0,40,0,7600
sync_net,2,01:29:21,3,4,1,0,0,0,37,0,0
""
sync_net,2,01:29:23,0,1,1,400,18800,47,47,0,18800
sync_net,2,01:29:23,1,2,1,380,17100,0,45,0,17100
sync_net,2,01:29:23,2,3,1,190,7600,0,40,0,7600
sync_net,2,01:29:23,3,4,1,0,0,0,37,0,0
""
sync_net,2,01:29:24,0,1,1,400,18800,47,47,18000,800
sync_net,2,01:29:24,1,2,1,380,17100,45,45,0,17100
sync_net,2,01:29:24,2,3,1,190,7600,0,40,0,7600
sync_net,2,01:29:24,3,4,1,0,0,0,37,0,0
""
sync_net,2,01:29:25,0,1,1,400,18800,47,47,18000,800
sync_net,2,01:29:25,1,2,1,380,17100,45,45,0,17100
sync_net,2,01:29:25,2,3,1,190,7600,0,40,0,7600
sync_net,2,01:29:25,3,4,1,0,0,0,37,0,0
""
sync_net,2,01:29:26,0,1,1,400,18800,47,47,18000,800
sync_net,2,01:29:26,1,2,1,380,17100,45,45,0,17100
sync_net,2,01:29:26,2,3,1,190,7600,0,40,0,7600
sync_net,2,01:29:26,3,4,1,0,0,0,37,0,0
""
sync_net,2,01:29:27,0,1,1,400,18800,47,47,18000,800
sync_net,2,01:29:27,1,2,1,380,17100,45,45,0,17100
sync_net,2,01:29:27,2,3,1,190,7600,0,40,0,7600
sync_net,2,01:29:27,3,4,1,0,0,0,37,0,0
""
sync_net,2,01:29:28,0,1,1,400,18800,47,47,18000,800
sync_net,2,01:29:28,1,2,1,380,17100,45,45,15200,1900
sync_net,2,01:29:28,2,3,1,190,7600,40,40,0,7600
sync_net,2,01:29:28,3,4,1,0,0,0,37,0,0
""
sync_net,2,01:29:29,0,1,1,400,18800,47,47,18000,800
sync_net,2,01:29:29,1,2,1,380,17100,45,45,15200,1900
sync_net,2,01:29:29,2,3,1,190,7600,40,40,0,7600
sync_net,2,01:29:29,3,4,1,0,0,0,37,0,0
""
sync_net,2,01:29:30,0,1,1,400,18800,47,47,18000,800
sync_net,2,01:29:30,1,2,1,380,17100,45,45,15200,1900
sync_net,2,01:29:30,2,3,1,190,7600,40,40,0,7600
sync_net,2,01:29:30,3,4,1,0,0,0,37,0,0
""
sync_net,2,01:29:31,0,1,1,400,18800,47,47,18000,800
sync_net,2,01:29:31,1,2,1,380,17100,45,45,15200,1900
sync_net,2,01:29:31,2,3,1,190,7600,40,40,0,7600
sync_net,2,01:29:31,3,4,1,0,0,0,37,0,0
""
sync_net,2,01:29:32,0,1,1,400,18800,47,47,18000,800
sync_net,2,01:29:32,1,2,1,380,17100,45,45,15200,1900
sync_net,2,01:29:32,2,3,1,190,7600,40,40,7030,570
sync_net,2,01:29:32,3,4,1,0,0,37,37,0,0
""
sync_net,2,01:29:33,0,1,1,400,18800,47,47,18000,800
sync_net,2,01:29:33,1,2,1,380,17100,45,45,15200,1900
sync_net,2,01:29:33,2,3,1,190,7600,40,40,7030,570
sync_net,2,01:29:33,3,4,1,0,0,37,37,0,0
""
sync_net,2,01:29:34,0,1,1,400,18800,47,47,18000,800
sync_net,2,01:29:34,1,2,1,380,17100,45,45,15200,1900
sync_net,2,01:29:34,2,3,1,190,7600,40,40,7030,570
sync_net,2,01:29:34,3,4,1,0,0,37,37,0,0
""
sync_net,2,01:29:35,0,1,1,400,18800,47,47,18000,800
sync_net,2,01:29:35,1,2,1,380,17100,45,45,15200,1900
sync_net,2,01:29:35,2,3,1,190,7600,40,40,7030,570
sync_net,2,01:29:35,3,4,1,0,0,37,37,0,0
""
sync_net,2,01:29:36,0,1,1,400,18800,47,47,18000,800
sync_net,2,01:29:36,1,2,1,380,17100,45,45,15200,1900
sync_net,2,01:29:36,2,3,1,190,7600,40,40,7030,570
sync_net,2,01:29:36,3,4,1,0,0,37,37,0,0
""
sync_net,2,01:29:38,0,1,1,400,18800,47,47,18000,800
sync_net,2,01:29:38,1,2,1,380,17100,45,45,15200,1900
sync_net,2,01:29:38,2,3,1,190,7600,40,40,7030,570
sync_net,2,01:29:38,3,4,1,0,0,37,37,0,0
""
